Tektronix:  IConnect
Version 6.1.0

File Created: May 25, 2017 at 07:06PM
Created By: Tek_Local_Admin

Format: Waveform
Type: Frequency Domain

== Begin Header ==

Type: Scattering

Data Type: dBMagnitude/Phase
Samples: 5001
Step Size: 4meg
First Step: 0
Reference Impedance: 50

== End Header ==

Data:
-1.3012	0
-1.2842	-21.911
-1.2456	-44.092
-1.2266	-66.659
-1.2698	-89.517
-1.4017	-112.42
-1.6242	-135.04
-1.9126	-157.08
-2.2132	-178.32
-2.4511	161.22
-2.5605	141.14
-2.5299	120.8
-2.4192	99.631
-2.3287	77.47
-2.3516	54.579
-2.5457	31.521
-2.9059	8.9823
-3.3688	-12.403
-3.8095	-32.297
-4.0736	-51.011
-4.0719	-69.607
-3.8601	-89.3
-3.5991	-110.67
-3.4513	-133.51
-3.5224	-157.12
-3.8494	179.42
-4.3962	157.08
-5.0413	136.67
-5.5791	118.43
-5.8037	101.47
-5.6699	84.035
-5.3375	64.834
-5.0206	43.732
-4.8633	21.37
-4.9207	-1.363
-5.1726	-23.606
-5.5326	-44.704
-5.8671	-64.457
-6.0492	-83.309
-6.0356	-102.16
-5.891	-121.81
-5.7291	-142.47
-5.6403	-163.87
-5.6653	174.49
-5.7921	153.07
-5.9696	132.2
-6.1316	111.92
-6.2243	91.966
-6.2354	71.928
-6.2002	51.464
-6.1765	30.509
-6.2101	9.2777
-6.3113	-11.88
-6.4522	-32.664
-6.5815	-52.977
-6.6505	-72.984
-6.6405	-93.038
-6.5756	-113.5
-6.5102	-134.54
-6.4993	-156.09
-6.5859	-177.88
-6.7831	160.5
-7.0639	139.49
-7.359	119.37
-7.5778	100.07
-7.6534	81.11
-7.5855	61.828
-7.4393	41.751
-7.3031	20.801
-7.2467	-0.76609
-7.3048	-22.536
-7.4778	-44.062
-7.7338	-64.953
-8.0047	-85.002
-8.2148	-104.29
-8.3091	-123.2
-8.2814	-142.26
-8.1725	-161.86
-8.0419	177.86
-7.9402	157
-7.8974	135.78
-7.9244	114.45
-8.0151	93.268
-8.1467	72.438
-8.2819	52.074
-8.3798	32.122
-8.4169	12.365
-8.3898	-7.4864
-8.3254	-27.644
-8.2613	-48.167
-8.2283	-68.965
-8.2401	-89.872
-8.2916	-110.72
-8.3622	-131.39
-8.4249	-151.92
-8.4623	-172.41
-8.4779	166.96
-8.4948	146.12
-8.5395	125.15
-8.6206	104.29
-8.7209	83.766
-8.7942	63.619
-8.8006	43.657
-8.7339	23.51
-8.6316	2.8553
-8.556	-18.398
-8.5641	-40.068
-8.6852	-61.778
-8.9077	-83.082
-9.1756	-103.64
-9.4024	-123.4
-9.5127	-142.76
-9.4931	-162.35
-9.4035	177.32
-9.3392	156.19
-9.3702	134.59
-9.5181	113.05
-9.7548	92.082
-10.011	71.98
-10.198	52.686
-10.254	33.744
-10.178	14.525
-10.033	-5.4086
-9.8983	-26.114
-9.8348	-47.331
-9.8612	-68.655
-9.9564	-89.73
-10.074	-110.39
-10.173	-130.71
-10.231	-150.89
-10.257	-171.15
-10.271	168.45
-10.292	147.94
-10.327	127.38
-10.377	106.85
-10.438	86.365
-10.503	65.968
-10.565	45.669
-10.613	25.447
-10.638	5.2505
-10.64	-14.991
-10.623	-35.333
-10.598	-55.802
-10.576	-76.393
-10.564	-97.072
-10.569	-117.78
-10.59	-138.45
-10.618	-159.07
-10.649	-179.69
-10.683	159.6
-10.735	138.75
-10.825	117.8
-10.957	96.913
-11.116	76.271
-11.267	55.966
-11.372	35.924
-11.407	15.92
-11.385	-4.3129
-11.337	-24.931
-11.31	-45.9
-11.339	-67.012
-11.433	-87.965
-11.57	-108.49
-11.703	-128.49
-11.786	-148.16
-11.803	-167.86
-11.784	172.08
-11.775	151.56
-11.815	130.75
-11.909	109.92
-12.034	89.28
-12.155	68.904
-12.24	48.684
-12.281	28.44
-12.296	8.0361
-12.315	-12.533
-12.361	-33.134
-12.439	-53.558
-12.525	-73.645
-12.582	-93.426
-12.582	-113.16
-12.537	-133.2
-12.492	-153.73
-12.499	-174.66
-12.584	164.32
-12.734	143.6
-12.892	123.39
-13	103.62
-13.022	84.011
-12.964	64.196
-12.869	43.966
-12.784	23.324
-12.746	2.4387
-12.767	-18.449
-12.834	-39.124
-12.916	-59.498
-12.981	-79.642
-13.013	-99.74
-13.017	-119.95
-13.01	-140.34
-13	-160.87
-12.986	178.5
-12.967	157.76
-12.956	136.88
-12.973	115.89
-13.038	94.942
-13.153	74.255
-13.293	53.997
-13.419	34.183
-13.494	14.624
-13.501	-5.0159
-13.46	-25.062
-13.411	-45.68
-13.4	-66.815
-13.455	-88.221
-13.572	-109.56
-13.722	-130.56
-13.859	-151.07
-13.944	-171.2
-13.967	168.87
-13.94	148.97
-13.886	129.05
-13.82	109.09
-13.747	89.05
-13.679	68.805
-13.64	48.254
-13.663	27.405
-13.775	6.4353
-13.977	-14.349
-14.232	-34.622
-14.467	-54.196
-14.592	-73.225
-14.551	-92.256
-14.363	-111.97
-14.119	-132.75
-13.926	-154.52
-13.861	-176.81
-13.949	160.99
-14.16	139.45
-14.42	118.89
-14.636	99.265
-14.738	80.112
-14.719	60.8
-14.625	40.882
-14.524	20.283
-14.462	-0.77782
-14.45	-21.96
-14.467	-42.994
-14.477	-63.805
-14.463	-84.515
-14.438	-105.28
-14.439	-126.13
-14.494	-146.88
-14.599	-167.3
-14.717	172.72
-14.804	153.02
-14.848	133.25
-14.866	113.08
-14.899	92.408
-14.979	71.37
-15.11	50.221
-15.273	29.216
-15.429	8.5229
-15.534	-11.856
-15.56	-32.097
-15.556	-52.458
-15.547	-73.112
-15.538	-94.035
-15.534	-115.02
-15.544	-135.85
-15.573	-156.43
-15.617	-176.83
-15.669	162.81
-15.721	142.47
-15.765	122.28
-15.795	102.38
-15.806	82.695
-15.79	62.935
-15.747	42.725
-15.695	21.882
-15.653	0.53592
-15.637	-20.962
-15.665	-42.199
-15.74	-62.818
-15.834	-82.631
-15.91	-101.77
-15.939	-120.71
-15.868	-140.04
-15.778	-160.15
-15.741	179
-15.795	157.72
-15.928	136.43
-16.088	115.37
-16.22	94.525
-16.297	73.7
-16.332	52.713
-16.362	31.587
-16.413	10.541
-16.487	-10.15
-16.553	-30.344
-16.571	-50.154
-16.529	-69.922
-16.456	-90.02
-16.412	-110.61
-16.457	-131.52
-16.61	-152.35
-16.837	-172.63
-17.044	167.81
-17.135	148.67
-17.072	129.23
-16.913	108.83
-16.768	87.346
-16.728	65.151
-16.83	42.886
-17.049	21.184
-17.312	0.47166
-17.522	-19.215
-17.602	-38.296
-17.542	-57.413
-17.398	-77.022
-17.244	-97.18
-17.122	-117.66
-17.032	-138.18
-16.946	-158.7
-16.849	-179.36
-16.762	159.61
-16.742	138.16
-16.844	116.58
-17.078	95.428
-17.39	75.259
-17.663	56.304
-17.764	38.126
-17.646	19.713
-17.385	0.13867
-17.121	-20.866
-16.968	-42.933
-16.975	-65.399
-17.125	-87.606
-17.355	-109.11
-17.582	-129.82
-17.742	-150.02
-17.831	-170.09
-17.882	169.7
-17.931	149.43
-17.982	129.3
-17.998	109.4
-17.94	89.504
-17.802	69.164
-17.639	47.992
-17.539	25.936
-17.58	3.3381
-17.804	-19.161
-18.191	-40.762
-18.639	-60.766
-18.973	-79.049
-19.034	-96.485
-18.816	-114.56
-18.476	-134.26
-18.203	-155.57
-18.119	-177.85
-18.144	159.75
-18.213	137.97
-18.308	117.31
-18.404	97.799
-18.475	78.98
-18.501	60.119
-18.508	40.673
-18.528	20.545
-18.56	-0.029026
-18.601	-20.749
-18.65	-41.452
-18.703	-62.145
-18.756	-82.885
-18.806	-103.65
-18.849	-124.34
-18.882	-144.9
-18.903	-165.41
-18.91	173.91
-18.932	152.9
-19.016	131.58
-19.174	110.16
-19.384	88.893
-19.6	67.935
-19.769	47.262
-19.855	26.687
-19.855	5.9794
-19.8	-14.979
-19.733	-36.118
-19.69	-57.203
-19.678	-77.93
-19.668	-98.104
-19.613	-117.85
-19.495	-137.64
-19.357	-158.01
-19.295	-179.18
-19.401	159.16
-19.712	137.69
-20.173	117.25
-20.631	98.34
-20.878	80.593
-20.804	62.657
-20.497	43.133
-20.16	21.609
-19.968	-1.3525
-20.01	-24.741
-20.29	-47.437
-20.717	-68.434
-21.102	-87.285
-21.235	-104.71
-21.054	-122.41
-20.714	-141.79
-20.437	-163
-20.366	174.69
-20.521	152.27
-20.835	130.56
-21.175	110
-21.392	90.414
-21.4	71.038
-21.23	51.018
-20.994	29.999
-20.804	8.2005
-20.724	-13.84
-20.76	-35.55
-20.868	-56.553
-20.985	-76.821
-21.064	-96.655
-21.108	-116.45
-21.137	-136.42
-21.174	-156.6
-21.213	-176.91
-21.239	162.6
-21.248	141.85
-21.256	120.79
-21.289	99.564
-21.359	78.416
-21.455	57.607
-21.555	37.265
-21.635	17.354
-21.682	-2.3074
-21.709	-21.955
-21.745	-41.773
-21.824	-61.816
-21.965	-81.996
-22.165	-102.16
-22.391	-122.23
-22.606	-142.34
-22.801	-162.71
-23	176.58
-23.234	155.8
-23.489	135.52
-23.671	116.17
-23.648	97.565
-23.358	78.713
-22.889	58.542
-22.43	36.667
-22.148	13.545
-22.13	-9.9187
-22.374	-32.719
-22.789	-53.961
-23.191	-73.193
-23.362	-90.983
-23.207	-108.94
-22.857	-128.52
-22.538	-149.99
-22.418	-172.59
-22.554	164.87
-22.882	143.6
-23.213	124.26
-23.312	106.33
-23.085	88.071
-22.683	67.926
-22.352	45.656
-22.271	22.077
-22.503	-1.5574
-22.997	-23.922
-23.582	-43.95
-23.979	-61.505
-23.956	-78.049
-23.556	-95.774
-23.044	-115.71
-22.664	-137.4
-22.525	-159.86
-22.635	177.85
-22.933	156.37
-23.313	135.95
-23.663	116.38
-23.92	97.02
-24.088	77.244
-24.214	56.753
-24.34	35.649
-24.473	14.259
-24.585	-7.0998
-24.642	-28.295
-24.642	-49.34
-24.617	-70.192
-24.602	-90.592
-24.588	-110.17
-24.502	-128.86
-24.259	-147.28
-23.867	-166.53
-23.449	172.54
-23.174	149.76
-23.172	125.68
-23.5	101.23
-24.132	77.537
-24.954	55.725
-25.738	36.65
-26.168	20.038
-26.046	3.9147
-25.512	-13.949
-24.883	-34.205
-24.407	-56.194
-24.195	-78.874
-24.273	-101.31
-24.604	-122.74
-25.098	-142.63
-25.615	-160.74
-25.985	-177.39
-26.068	166.47
-25.834	149.47
-25.377	130.57
-24.852	109.48
-24.393	86.621
-24.081	62.764
-23.942	38.792
-23.961	15.512
-24.062	-6.4783
-24.13	-27.019
-24.049	-46.659
-23.793	-66.517
-23.462	-87.586
-23.219	-110.16
-23.204	-133.82
-23.491	-157.68
-24.065	179.41
-24.81	158.54
-25.501	140.3
-25.881	124.05
-25.856	108.01
-25.584	90.712
-25.29	72.05
-25.088	52.738
-24.971	33.391
-24.877	14.089
-24.767	-5.6334
-24.678	-26.401
-24.707	-48.507
-24.959	-71.692
-25.498	-95.114
-26.294	-117.38
-27.13	-136.93
-27.569	-153.44
-27.256	-169.38
-26.366	171.84
-25.389	149.39
-24.685	124.56
-24.411	99.1
-24.585	74.578
-25.128	52.333
-25.834	33.418
-26.343	17.753
-26.353	3.0186
-25.96	-13.897
-25.512	-34.176
-25.271	-57.185
-25.333	-81.727
-25.681	-106.6
-26.223	-130.77
-26.813	-153.52
-27.296	-174.66
-27.571	165.51
-27.613	146.52
-27.446	127.99
-27.095	109.59
-26.59	90.836
-26	71.134
-25.441	50.123
-25.036	27.888
-24.875	4.8838
-24.994	-18.245
-25.387	-40.76
-25.983	-61.865
-26.62	-80.962
-27.059	-98.3
-27.133	-115.31
-26.889	-133.74
-26.524	-154.39
-26.214	-176.92
-26.042	159.46
-26.015	135.58
-26.098	112.04
-26.247	89.28
-26.421	67.629
-26.572	47.322
-26.629	28.414
-26.514	10.554
-26.19	-7.0995
-25.713	-25.553
-25.221	-45.441
-24.869	-66.797
-24.771	-89.203
-24.989	-112.01
-25.531	-134.45
-26.341	-155.65
-27.27	-174.78
-28.062	168.4
-28.455	152.87
-28.377	136.76
-27.981	118.78
-27.457	98.942
-26.916	77.762
-26.403	55.643
-25.964	32.697
-25.672	8.9557
-25.614	-15.405
-25.867	-39.972
-26.475	-64.075
-27.431	-86.721
-28.613	-106.55
-29.662	-122.41
-30.031	-135.51
-29.537	-150.11
-28.633	-168.98
-27.806	168.63
-27.29	144.75
-27.122	121.29
-27.229	99.682
-27.431	80.686
-27.494	63.894
-27.284	47.533
-26.907	29.645
-26.6	9.4044
-26.544	-12.96
-26.81	-36.845
-27.369	-61.664
-28.118	-86.951
-28.904	-112.31
-29.568	-137.29
-29.992	-161.3
-30.125	176.27
-29.969	155.71
-29.552	136.76
-28.947	118.57
-28.288	100.21
-27.744	81.211
-27.451	61.739
-27.472	42.376
-27.761	23.85
-28.157	6.6061
-28.413	-9.8607
-28.363	-27.305
-28.07	-47.595
-27.735	-71.319
-27.527	-97.757
-27.544	-125.5
-27.846	-152.86
-28.448	-177.99
-29.244	160.84
-29.939	144.42
-30.163	131.18
-29.89	117.58
-29.501	101.53
-29.337	83.529
-29.477	65.006
-29.771	46.895
-29.966	28.816
-29.917	9.1173
-29.708	-13.714
-29.53	-39.727
-29.547	-67.656
-29.879	-95.518
-30.599	-120.84
-31.608	-140.57
-32.307	-152.41
-31.771	-160.37
-30.248	-173.2
-28.784	167.07
-27.912	142.83
-27.75	116.18
-28.283	88.444
-29.448	60.649
-31.123	34.067
-33.012	10.539
-34.506	-8.0928
-34.814	-23.127
-33.865	-39.44
-32.401	-59.09
-31.025	-80.608
-29.978	-102.22
-29.296	-122.85
-28.93	-142.01
-28.795	-159.6
-28.79	-175.78
-28.812	168.96
-28.781	153.76
-28.686	137.56
-28.577	119.42
-28.535	98.816
-28.61	75.682
-28.791	50.291
-29.011	23.223
-29.182	-4.643
-29.241	-32.258
-29.188	-58.742
-29.08	-83.64
-29.012	-106.86
-29.083	-128.31
-29.348	-147.61
-29.75	-164.08
-30.055	-177.42
-29.944	170.89
-29.373	157.72
-28.669	140.92
-28.194	120.54
-28.144	97.633
-28.583	73.32
-29.493	48.604
-30.777	24.501
-32.2	1.9373
-33.364	-18.961
-33.887	-39.651
-33.724	-62.098
-33.15	-86.632
-32.49	-111.9
-31.94	-136.14
-31.536	-158.11
-31.204	-177.47
-30.857	165.21
-30.491	148.96
-30.184	133.22
-29.981	118.16
-29.803	104.08
-29.486	90.401
-28.964	75.421
-28.388	57.493
-28.004	36.111
-27.995	11.71
-28.452	-14.963
-29.414	-42.985
-30.889	-70.891
-32.82	-95.935
-34.825	-113.67
-35.691	-121.89
-34.487	-129.89
-32.417	-146
-30.626	-168.03
-29.427	167.42
-28.812	142.27
-28.69	117.22
-28.978	92.204
-29.646	66.765
-30.716	40.444
-32.229	13.112
-34.192	-14.811
-36.562	-41.661
-39.118	-63.067
-40.764	-72.63
-39.616	-77.098
-36.905	-91.441
-34.562	-113.37
-33.077	-137.71
-32.495	-161.65
-32.774	176.91
-33.721	160.51
-34.699	151.36
-34.704	146.27
-33.744	136.73
-32.746	119.9
-32.215	97.781
-32.199	72.414
-32.548	45.117
-33.024	16.853
-33.392	-11.403
-33.526	-38.628
-33.459	-64.016
-33.325	-87.135
-33.238	-107.82
-33.227	-126.17
-33.253	-142.78
-33.309	-158.8
-33.519	-175.33
-34.092	167.5
-35.199	150.91
-36.78	137.52
-38.172	129.78
-38.255	123.35
-37.204	108.39
-36.037	83.151
-35.134	51.297
-34.494	16.89
-34.132	-16.487
-34.122	-45.913
-34.381	-68.951
-34.391	-84.668
-33.484	-97.338
-31.918	-113.9
-30.497	-136.06
-29.674	-162.07
-29.603	170.05
-30.34	142.07
-31.898	116.19
-34.149	95.923
-36.308	85.733
-36.749	81.697
-35.772	70.468
-35.034	51.292
-35.166	30.128
-36.1	12.991
-36.893	5.0905
-35.899	0.6012
-33.732	-13.744
-31.905	-37.893
-30.858	-67.612
-30.58	-100.37
-30.982	-134.67
-31.97	-169.15
-33.457	158.17
-35.281	130.62
-36.854	112.29
-36.945	101.35
-35.536	87.045
-33.987	66.062
-33.011	41.654
-32.739	16.722
-33.101	-6.7835
-33.908	-27.437
-34.825	-44.753
-35.52	-60.106
-35.956	-75.88
-36.339	-92.962
-36.756	-110.34
-36.987	-127.01
-36.711	-144.17
-35.967	-164.53
-35.16	170.78
-34.699	142.77
-34.871	113.39
-35.924	85.163
-38.073	62.869
-40.656	57.781
-39.552	67.082
-35.846	56.264
-32.975	31.232
-31.191	1.2738
-30.325	-30.041
-30.287	-60.755
-31.027	-88.914
-32.398	-111.84
-33.831	-126.56
-34.176	-135.08
-33.242	-147.31
-32.21	-167.26
-31.8	168.12
-32.136	142.23
-33.083	117.79
-34.26	97.189
-34.916	80.933
-34.44	64.466
-33.243	42.721
-32.078	16.103
-31.344	-12.604
-31.206	-40.907
-31.736	-66.561
-32.854	-86.821
-34.021	-98.763
-34.112	-104.64
-32.997	-114.25
-31.808	-131.28
-31.213	-153.08
-31.339	-176.79
-32.101	159.5
-33.296	137.16
-34.568	116.87
-35.475	97.837
-35.77	77.814
-35.583	55.425
-35.185	31.496
-34.762	7.8684
-34.361	-13.995
-33.925	-33.7
-33.388	-52.042
-32.792	-70.299
-32.281	-89.198
-31.974	-108.58
-31.879	-127.81
-31.886	-146.45
-31.87	-164.74
-31.827	176.34
-31.775	155.83
-31.733	133.55
-31.717	110.14
-31.731	86.631
-31.771	64.075
-31.826	43.408
-31.881	25.058
-31.922	8.5141
-31.937	-7.5305
-31.93	-24.21
-31.911	-41.827
-31.881	-60.23
-31.845	-79.589
-31.807	-100.69
-31.771	-124.34
-31.742	-150.63
-31.723	-178.75
-31.717	152.6
-31.945	124.72
-32.573	98.911
-33.418	76.753
-34.167	60.192
-34.471	49.298
-34.157	38.663
-33.562	22.596
-33.28	0.6925
-33.66	-25.398
-34.794	-54.17
-36.629	-84.19
-38.958	-113.37
-41.173	-137.16
-42.15	-146.33
-41.656	-146.9
-38.937	-162.84
-36.72	170.94
-35.464	142.2
-35.187	114.36
-35.876	89.964
-37.31	72.791
-38.372	66.225
-37.546	61.72
-35.738	47
-34.274	23.204
-33.463	-5.6023
-33.247	-36.583
-33.493	-67.411
-34.039	-95.863
-34.668	-120.04
-35.058	-139.4
-34.95	-156.02
-34.516	-173.08
-34.21	168.45
-34.338	150.03
-34.873	134.07
-35.338	122.17
-35.056	111.41
-34.106	95.601
-33.173	72.482
-32.686	43.326
-32.781	9.9583
-33.518	-25.645
-35.032	-60.86
-37.682	-91.2
-41.835	-104.32
-42.609	-81.413
-37.761	-83.431
-34.453	-107.15
-32.923	-136.13
-32.895	-165.83
-34.405	166.14
-37.885	144.59
-43.166	151.07
-40.915	-179.99
-36.845	164.93
-35.003	134.85
-34.628	98.87
-35.131	58.587
-35.934	15.181
-36.559	-27.691
-36.919	-64.635
-37.05	-92.396
-36.665	-112.35
-35.653	-130.27
-34.562	-150.52
-33.99	-172.81
-34.204	165.59
-35.106	148.61
-35.911	140.24
-35.181	136.23
-33.212	124.73
-31.443	104.59
-30.442	80.295
-30.266	55.388
-30.851	32.637
-31.957	15.199
-32.794	5.4143
-32.324	-1.8765
-30.99	-15.628
-29.868	-36.483
-29.402	-61.5
-29.694	-88.333
-30.747	-115
-32.46	-139.15
-34.445	-157.92
-35.76	-170.41
-35.613	177.18
-34.582	158.45
-33.51	134.43
-32.69	108.34
-32.128	82.237
-31.772	56.829
-31.61	31.963
-31.708	7.2703
-32.195	-17.283
-33.229	-40.981
-34.959	-61.655
-37.222	-74.113
-38.358	-73.546
-36.632	-75.638
-34.206	-92.399
-32.453	-117.59
-31.522	-146.15
-31.385	-175.25
-31.995	157.49
-33.176	134.69
-34.377	118.5
-34.694	106.47
-34.018	90.684
-33.22	67.486
-32.863	38.564
-33.023	6.3368
-33.568	-26.922
-34.315	-58.329
-34.997	-84.269
-35.07	-102.86
-34.069	-117.86
-32.436	-135.02
-30.974	-155.43
-30.135	-177.21
-30.055	162.1
-30.613	145.06
-31.346	133.51
-31.579	125.72
-31.199	116.18
-30.858	101.94
-31.142	84.542
-32.266	67.079
-34.111	53.058
-36.013	45.094
-36.918	39.344
-36.961	26.077
-37.142	2.1586
-37.729	-30.747
-38.257	-69.618
-38.242	-108.22
-37.81	-140.02
-37.169	-163.25
-36.221	179.29
-35.028	162.84
-33.995	144.63
-33.503	124.87
-33.711	105.34
-34.488	88.282
-35.37	74.887
-35.751	62.761
-35.585	46.435
-35.404	22.982
-35.577	-6.9574
-36.102	-41.445
-36.831	-77.712
-37.76	-111.87
-39.069	-138.84
-40.455	-151.76
-39.852	-150.87
-36.863	-156.54
-33.853	-173.72
-31.615	163.47
-30.147	138.33
-29.355	112.38
-29.157	86.438
-29.506	61.12
-30.398	37.198
-31.846	16.253
-33.681	1.4782
-34.991	-3.9798
-34.44	-6.7615
-32.738	-18.181
-31.248	-37.841
-30.439	-61.721
-30.404	-86.971
-31.147	-111.29
-32.557	-132.09
-34.162	-146.58
-34.955	-156.02
-34.601	-169
-34.033	169.36
-33.955	140.26
-34.505	105.53
-35.535	66.316
-36.774	24.23
-38.061	-17.629
-39.577	-55.538
-41.793	-86.475
-45.383	-105.98
-50.483	-93.137
-46.906	-49.831
-40.473	-54.105
-35.932	-74.311
-32.672	-100.41
-30.385	-129.82
-28.938	-161.4
-28.293	165.58
-28.485	131.85
-29.63	98.404
-32.004	67.123
-36.232	43.961
-41.446	56.392
-37.61	77.243
-33.605	55.815
-31.76	23.362
-31.429	-13.055
-32.352	-52.637
-34.454	-96.891
-37.467	-149.41
-40.182	148.18
-41.747	88.503
-44.564	44.319
-53.486	45.003
-45.249	109.55
-38.78	86.931
-36.019	59.809
-35.326	35.263
-36.18	17.259
-37.766	12.102
-37.732	19.178
-35.721	18.945
-33.979	8.683
-33.037	-4.5292
-32.551	-17.322
-32.129	-30.22
-31.759	-45.734
-31.812	-65.164
-32.702	-87.746
-34.801	-111.39
-38.53	-131.2
-43.334	-131.14
-42.636	-116.79
-39.334	-138.43
-36.995	-178.28
-35.172	136.44
-33.798	91.491
-33.137	48.619
-33.411	7.4666
-34.718	-32.828
-37.012	-72.598
-39.846	-109.55
-41.655	-135.92
-39.932	-153.06
-36.045	-177.09
-32.637	152.53
-30.463	120.04
-29.677	87.479
-30.454	56.064
-33.365	27.886
-40.557	16.005
-41.208	91.026
-33.965	81.536
-31.41	54.183
-31.47	24.209
-34.131	-5.6937
-42.028	-29.845
-44.622	87.192
-35.482	65.909
-32.789	34.316
-32.759	0.4678
-34.912	-36.183
-39.7	-80.847
-46.689	-161.47
-45.049	104.12
-44.682	54.91
-51.899	10.579
-49.559	-177.76
-40.677	146.67
-37.467	120.67
-36.433	102.04
-36.005	92.004
-34.856	84.975
-33.265	71.603
-32.298	50.631
-32.505	24.845
-34.163	-3.2652
-37.72	-30.665
-44.084	-44.931
-46.286	-10.351
-40.57	-24.065
-36.563	-62.902
-33.431	-103.49
-31.032	-140.33
-29.422	-172.59
-28.517	159.58
-28.093	135.72
-27.884	114.51
-27.782	93.628
-27.965	70.978
-28.775	45.827
-30.629	18.687
-34.206	-8.4827
-41.412	-24.655
-44.263	41.074
-36.606	30.359
-33.093	-4.964
-31.216	-44.356
-30.24	-83.644
-30.056	-120.44
-30.789	-152.55
-32.519	-176.2
-34.467	175.22
-34.114	176.58
-32.121	166.22
-30.915	144.72
-31.148	118.78
-33.08	92.574
-37.324	72.249
-43.621	85.986
-40.492	114.38
-37.191	92.323
-36.389	54.119
-36.676	5.2237
-36.463	-49.998
-35.425	-99.976
-34.717	-139.19
-34.945	-167.77
-35.744	175.17
-35.887	167.37
-34.912	158
-34.005	141.43
-34.031	120.68
-35.194	100.31
-37.169	85.354
-38.615	77.731
-38.409	65.853
-37.739	39.556
-37.432	0.70395
-37.304	-46.126
-37.29	-95.495
-38.036	-144.24
-40.664	164.71
-46.275	86.891
-42.577	-26.173
-36.875	-79.944
-34.121	-118.16
-33.331	-150.05
-34.082	-174.73
-35.586	173.07
-35.504	172.12
-33.404	162.01
-31.608	137.9
-30.939	105.19
-31.424	66.584
-32.892	22.487
-35.01	-27.714
-37.444	-83.933
-40.473	-146.81
-43.998	127.97
-40.86	28.993
-35.791	-30.018
-32.632	-72.084
-30.939	-107.23
-30.363	-138.02
-30.683	-164.89
-31.683	172.37
-33.117	153.7
-34.844	138.38
-36.943	126.77
-39.201	123.48
-39.576	129.79
-37.275	124.96
-34.815	102.85
-33.014	70.743
-31.757	33.632
-30.912	-5.0355
-30.503	-42.617
-30.656	-77.288
-31.502	-107.47
-33.009	-130.59
-34.475	-143.37
-34.412	-150.66
-33.113	-165.81
-32.058	169.24
-31.736	138.2
-32.093	103.54
-32.947	67.2
-34.12	31.894
-35.455	1.5302
-36.575	-20.122
-36.711	-34.259
-35.811	-49
-34.933	-68.505
-34.899	-90.642
-36.085	-111.31
-38.514	-123.3
-40.201	-116.35
-37.974	-111.67
-35.116	-127.78
-33.196	-154.58
-31.992	173.89
-31.129	140.47
-30.332	107.3
-29.498	75.89
-28.669	46.779
-27.967	19.679
-27.536	-5.8697
-27.51	-30.008
-27.983	-52.353
-28.979	-71.87
-30.339	-86.878
-31.522	-96.557
-31.922	-104.81
-31.835	-117.72
-32.072	-136.44
-33.165	-158.82
-35.464	178.33
-39.343	161.73
-43.415	170.84
-41.058	-174.31
-37.468	168.77
-35.181	140.66
-33.852	110.08
-33.232	80.103
-33.166	52.011
-33.527	25.774
-34.254	-0.10861
-35.495	-28.625
-37.624	-64.936
-40.384	-120.79
-39.456	163.14
-35.485	107.42
-32.586	66.893
-31.095	31.313
-30.924	-2.5974
-32.163	-35.776
-35.252	-68.386
-41.97	-100.39
-57.696	47.387
-41.086	17.095
-37.417	-12.38
-36.485	-39.39
-36.967	-61.803
-37.912	-77.297
-38.125	-88.365
-37.439	-103.88
-36.883	-127.39
-37.213	-156.91
-38.924	169.14
-42.975	128.87
-51.999	50.942
-45.881	-75.245
-40.388	-121.86
-38.286	-158.75
-38.288	167.54
-40.364	137.5
-45.365	119.93
-49.036	157.08
-42.968	160.46
-39.607	128.58
-38.007	85.364
-36.875	34.83
-35.409	-17.639
-33.774	-66.574
-32.543	-111.37
-32.047	-154.23
-32.369	162.36
-33.343	116.29
-34.438	66.927
-35.041	18.227
-35.368	-22.593
-36.02	-50.17
-36.385	-60.929
-34.679	-64.807
-31.991	-78.468
-30.072	-101.05
-29.444	-128.7
-30.467	-160.08
-34.05	163
-43.139	90.494
-36.652	-37.773
-30.636	-81.479
-28.009	-116.98
-27.255	-151.5
-27.984	173.13
-30.087	134.77
-33.339	88.242
-36.009	26.794
-35.634	-32.231
-34.583	-70.898
-34.238	-94.74
-34.168	-109.49
-33.97	-121.13
-33.982	-133.87
-34.765	-146.54
-36.343	-153.65
-37.366	-150.75
-36.364	-150.06
-35.025	-163.5
-34.915	172.22
-36.647	140.16
-40.98	95.735
-46.007	2.9729
-40.504	-83.221
-36.643	-130.32
-35.024	-170.55
-34.838	151.11
-35.629	114.38
-37.06	80.266
-38.765	50.482
-40.155	25.454
-40.731	0.14309
-40.86	-33.293
-40.917	-79.414
-40.069	-137.11
-37.755	165.54
-35.296	116.3
-33.681	72.971
-33.166	32.448
-33.804	-7.3895
-35.651	-48.278
-38.716	-91.932
-42.774	-138.38
-47.496	-175.67
-49.194	-165.38
-42.454	-167.86
-37.474	165.3
-34.743	135.22
-33.795	106.14
-34.542	79.932
-37.296	60.614
-42.063	65.277
-41.293	99.712
-37.597	98.406
-36.297	83.99
-37.05	71.388
-39.008	71.292
-39.091	85.858
-36.859	88.922
-35.41	79.433
-35.324	67.742
-36.135	60.368
-36.691	59.101
-36.238	55.689
-35.819	43.02
-36.567	22.287
-39.24	-5.2833
-45.216	-46.72
-50.469	-156.25
-44.466	135.4
-43.006	100.13
-42.862	70.148
-42.72	38.167
-41.946	-160.11
-40.319	176.25
-38.95	156.3
-38.44	140.16
-38.735	128.02
-39.719	119.75
-41.426	116.43
-43.638	125.3
-43.212	149.47
-39.605	156.56
-36.754	144.42
-35.507	123.33
-35.943	97.209
-38.383	65.727
-43.938	18.292
-46.527	-90.924
-40.391	-154.96
-37.785	167.12
-37.709	133.32
-39.957	98.146
-45.539	49.452
-48.321	-62.736
-41.884	-125.65
-39.058	-160.11
-38.468	172.39
-39.405	149.67
-41.391	133.25
-43.29	124.47
-43.588	113.37
-42.674	86.315
-40.881	45.427
-38.216	2.0597
-35.573	-36.929
-33.664	-71.688
-32.704	-103.64
-32.722	-133.69
-33.747	-162.24
-35.852	171.03
-39.023	147.5
-42.658	128.52
-44.946	107.2
-44.205	69.244
-40.821	24.033
-37.237	-16.208
-34.759	-52.53
-33.588	-86.911
-33.701	-120.27
-35.188	-153.19
-38.553	174.13
-46.003	145.06
-53.383	-111.77
-42.373	-131.26
-38.687	-169.94
-36.893	149.38
-35.943	110.06
-35.6	74.64
-35.868	45.298
-36.545	24.052
-36.932	10.507
-36.568	-2.14
-36.237	-20.331
-37.043	-44.375
-40.181	-73.795
-49.957	-123.14
-45.042	75.395
-37.984	36.98
-35.494	6.9007
-35.488	-19.301
-37.934	-36.776
-41.62	-20.282
-37.182	5.0641
-32.478	-8.9916
-29.863	-33.569
-28.674	-61.036
-28.614	-89.31
-29.627	-117.04
-31.797	-142.21
-35.3	-160.21
-39.514	-158.11
-39.362	-137.45
-36.235	-141.01
-34.123	-159.72
-33.101	176.4
-32.921	150.05
-33.49	121.47
-34.895	89.663
-37.346	52.143
-40.873	2.5288
-43.382	-67.639
-42.305	-134.64
-41.294	176.25
-42.236	133.59
-46.185	86.483
-53.106	-13.025
-45.838	-111.03
-41.557	-155.88
-40.121	166.53
-40.576	130.04
-42.708	92.635
-46.537	54.313
-51.765	24.038
-53.127	31.062
-46.653	21.9
-41.359	-5.1084
-37.926	-32.887
-35.99	-57.975
-35.246	-78.381
-35.205	-91.752
-34.925	-98.047
-33.772	-103.99
-32.432	-115.71
-31.779	-132.35
-32.244	-150.65
-34.141	-166.47
-37.626	-170.02
-39.168	-145.62
-35.566	-137.26
-32.814	-153.23
-31.675	-178.41
-31.804	150.55
-32.886	112.3
-34.198	63.794
-34.32	8.3882
-33.245	-41.363
-32.44	-82.183
-32.743	-117.82
-34.761	-151.57
-40.22	172.87
-53.76	15.968
-37.565	-53.825
-32.517	-87.624
-30.091	-120.23
-29.109	-153.27
-29.191	173.04
-30.136	138.9
-31.812	104.8
-34.215	71.935
-37.582	43.881
-42.097	32.714
-43.16	53.696
-39.05	53.264
-36.067	33.253
-34.54	8.136
-34.171	-18.829
-34.83	-47.978
-36.448	-82.694
-38.328	-131.42
-37.41	166.23
-33.752	116.96
-30.423	81.368
-28.044	51.57
-26.533	24.269
-25.799	-1.7108
-25.803	-26.591
-26.517	-49.919
-27.855	-70.723
-29.574	-87.942
-31.203	-101.77
-32.295	-115.7
-32.986	-134.87
-33.805	-161.44
-35.085	165.28
-37.006	126.85
-40.111	84.459
-46.734	31.974
-49.412	-124.38
-39.421	175.65
-34.956	138.25
-32.784	105.55
-32.225	76.176
-33.11	51.773
-35.085	37.24
-36.382	36.459
-35.362	32.673
-34.28	12.652
-34.747	-20.913
-37.036	-72.212
-37.847	-153.19
-36.876	136.27
-34.903	86.667
-33.295	42.682
-32.708	-1.8988
-33.171	-51.389
-34.178	-111.22
-34.729	179.15
-33.762	114.73
-32.102	59.789
-31.377	9.0667
-31.578	-41.456
-32.19	-94.054
-33.237	-149.2
-34.766	154.71
-36.852	99.519
-39.601	45.177
-43.157	-10.265
-47.616	-68.994
-52.509	-129.23
-55.132	-173.09
-50.732	-91.833
-41.529	-132
-36.761	-177.39
-33.844	137.65
-32.119	93.862
-31.377	52.022
-31.646	13.265
-33.193	-20.218
-36.538	-41.044
-39.432	-24.938
-34.947	-12.637
-30.988	-30.67
-28.979	-55.703
-28.486	-80.602
-29.241	-101.38
-30.702	-113.44
-31.41	-115.96
-30.596	-121.07
-29.81	-135.9
-30.257	-156.51
-32.61	-177.37
-38.022	173.96
-40.948	-135.41
-34.621	-128.85
-31.657	-151.41
-31.054	-179.87
-32.328	149.75
-35.602	118.74
-41.938	88.486
-58.202	82.177
-52.084	175.53
-52.945	115.01
-48.062	-2.9486
-40.526	-56.585
-36.733	-95.017
-35.161	-129.94
-35.308	-163.1
-37.154	166.01
-41.105	140.8
-47.706	138.61
-48.466	176.42
-45.598	171.47
-46.024	156.4
-48.042	161.67
-44.775	177.6
-40.15	161.5
-37.371	131.73
-36.206	97.418
-36.494	61.185
-38.447	23.49
-43.209	-17.246
-58.91	-100.57
-45.541	101.68
-40.343	56.128
-38.593	11.863
-38.535	-34.807
-39.554	-85.14
-41.471	-137.98
-45.173	169.86
-58.982	111.68
-45.814	-94.344
-37.99	-136.23
-33.966	-175.35
-31.849	146.35
-31.144	108.16
-31.583	69.081
-32.855	26.847
-34.259	-21.647
-34.519	-74.339
-33.392	-120.9
-31.964	-157.37
-30.815	172.97
-30.056	146.34
-29.803	119.88
-30.271	91.753
-31.738	60.532
-34.459	23.632
-38.079	-26.052
-39.472	-90.03
-37.744	-137.29
-35.958	-163.52
-34.233	180
-32.385	163.53
-30.972	142.04
-30.568	114.94
-31.554	81.317
-34.108	34.863
-35.811	-39.001
-32.416	-108.39
-29.121	-153
-27.468	172.57
-27.259	143.55
-28.336	120.26
-30.335	107.04
-31.463	107.65
-30.015	105.7
-28.06	88.991
-26.89	62.637
-26.595	30.834
-27.042	-4.1082
-28.031	-40.121
-29.403	-74.862
-31.136	-105.7
-33.302	-129.56
-35.72	-142.37
-37.351	-142.32
-37.229	-137.33
-35.885	-134.97
-33.754	-137.33
-31.27	-147.22
-29.111	-165.02
-27.694	171.21
-27.118	143.35
-27.326	112.23
-28.179	77.68
-29.465	39.292
-30.879	-2.086
-32.213	-42.866
-33.656	-77.838
-35.535	-101.88
-37.282	-109.55
-36.844	-106.88
-34.836	-112.7
-33.285	-127.02
-32.627	-144.07
-32.711	-160.91
-33.311	-176.64
-34.293	168.22
-35.767	152.65
-38.148	136.78
-42.19	124.55
-48.225	136.56
-47.031	175.06
-43.551	165.72
-42.869	137.01
-44.566	95.027
-47.267	28.789
-45.712	-50.26
-42.702	-104.68
-41.401	-146.14
-41.928	178.41
-44.373	151.37
-47.798	149.06
-45.517	162.45
-41.229	144.41
-38.617	112.79
-37.659	76.686
-38.533	37.82
-42.233	-8.164
-48.807	-110.38
-40.25	153.08
-35.111	110.45
-32.856	76.69
-32.58	48.451
-34.094	28.755
-36.666	29.363
-35.352	48.836
-31.415	45.379
-28.844	28.056
-27.693	8.0266
-27.564	-10.285
-27.993	-24.417
-28.281	-34.135
-27.927	-44.002
-27.344	-59.027
-27.189	-79.586
-27.799	-104.6
-29.402	-134.06
-32.278	-169.74
-36.368	141.88
-38.776	73.866
-37.078	17.806
-35.135	-16.669
-33.82	-42.416
-33.035	-66.542
-32.946	-92.581
-33.944	-122.39
-36.754	-159.62
-42.436	133.12
-38.8	22.173
-32.366	-30.902
-28.603	-70.207
-26.294	-106.15
-24.906	-140.87
-24.241	-175.09
-24.229	151.14
-24.845	118.21
-26.059	86.557
-27.865	56.449
-30.336	28.313
-33.645	3.7506
-37.856	-11.894
-41.275	-8.2021
-40.231	-3.7297
-37.779	-21.674
-35.905	-51.474
-34.604	-85.38
-33.789	-119.21
-33.487	-150.34
-33.733	-176.68
-34.372	164.28
-34.643	154.17
-33.563	146.86
-31.704	133.14
-30.182	112.62
-29.461	88.354
-29.678	62.892
-30.883	38.652
-32.981	18.796
-35.359	6.9109
-36.669	-0.12231
-36.98	-15.823
-38.005	-47.158
-40.329	-101.33
-39.691	176.45
-35.173	112.41
-31.739	65.514
-29.765	23.501
-28.972	-17.513
-29.169	-59.202
-30.245	-103.13
-32.093	-151.65
-34.367	151.77
-36.003	85.613
-36.024	18.18
-35.267	-41.899
-34.717	-95.287
-34.66	-143.89
-35.17	172.42
-36.372	135.76
-38.212	111.26
-39.093	105.31
-36.685	101.01
-33.432	81.539
-31.011	53.287
-29.518	20.953
-28.83	-14.225
-28.851	-52.607
-29.443	-95.373
-30.222	-143.82
-30.466	163.14
-29.795	111
-28.709	64.141
-27.853	22.272
-27.539	-16.341
-27.873	-53.026
-28.914	-88.705
-30.779	-124.15
-33.748	-160.23
-38.527	160.78
-47.249	101.08
-46.202	-29.733
-39.752	-78.34
-36.381	-111.2
-34.241	-141.05
-32.836	-170.51
-32.055	159.48
-31.953	128.28
-32.712	95.072
-34.716	58.211
-38.724	12.204
-44.196	-70.286
-40.58	-165.52
-36.792	142.09
-35.388	98.21
-35.62	52.121
-36.55	-2.932
-36.131	-65.525
-34.027	-118.8
-32.105	-158.39
-31.008	171.37
-30.621	148.12
-30.562	130.75
-30.405	117.05
-30.048	103.42
-29.804	87.546
-30.047	69.502
-31.01	50.527
-32.823	32.13
-35.591	15.929
-39.493	4.1315
-44.908	2.3769
-50.725	30.993
-49.659	68.589
-48.481	72.636
-51.692	77.53
-51.335	152.33
-41.641	158.99
-36.153	139.03
-32.858	112.74
-31.037	83.212
-30.396	51.325
-30.784	16.846
-32.114	-21.864
-34.187	-68.601
-35.934	-127.82
-35.542	168.95
-33.972	117.03
-32.82	75.535
-32.437	40.308
-32.822	9.5332
-33.956	-16.74
-35.78	-36.889
-37.95	-48.092
-39.548	-49.972
-40.107	-49.812
-40.812	-51.222
-42.523	-42.466
-41.22	-10.791
-35.533	-1.1269
-30.8	-12.819
-27.484	-32.232
-25.325	-54.767
-24.133	-78.431
-23.78	-102.31
-24.221	-126.12
-25.524	-149.84
-27.914	-173.55
-31.947	161.8
-39.669	127.18
-42.923	-7.3983
-33.819	-52.576
-29.546	-78.773
-27.209	-104.52
-26.181	-131.85
-26.286	-161.62
-27.528	164.35
-29.953	121.46
-32.69	60.684
-32.603	-10.792
-31.093	-66.705
-30.972	-111.87
-32.96	-156.9
-37.411	139.98
-37.064	39.3
-32.195	-22.012
-29.842	-63.546
-29.625	-99.866
-31.403	-134.45
-35.846	-169.07
-47.326	150.13
-45.782	-45.575
-40.41	-86.49
-40.909	-132.43
-42.845	156.43
-42.57	84.036
-41.823	44.991
-40.792	25.168
-39.674	20.823
-38.623	19.512
-37.74	8.1279
-37.081	-10.746
-36.677	-32.776
-36.54	-55.773
-36.74	-78.501
-37.333	-99.794
-38.304	-118.49
-39.61	-134.64
-41.147	-151.73
-42.705	-177.32
-43.927	137.22
-44.4	70.88
-39.61	17.297
-36.54	-23.232
-38.067	-61.888
-42.278	-110.74
-45.526	168.26
-42.816	104.96
-42.077	78.416
-42.573	85.828
-38.483	102.29
-33.946	94.264
-31.296	77.162
-30.375	58.942
-31.105	44.687
-33.096	43.83
-33.067	62.288
-29.802	68.545
-27.104	58.814
-25.664	43.805
-25.269	28.166
-25.671	14.162
-26.587	2.8836
-27.789	-6.1654
-29.401	-14.14
-32	-18.919
-35.629	-6.7365
-34.721	25.442
-30.837	27.183
-28.707	11.46
-28.385	-10.334
-29.955	-35.055
-34.469	-60.526
-49.498	-58.858
-38.305	41.523
-33.449	11.64
-32.547	-26.705
-33.514	-77.368
-33.696	-144.58
-31.352	153.47
-29.245	107.34
-28.565	69.674
-29.448	36.449
-32.075	7.2673
-36.769	-13.582
-42.244	-12.566
-43.125	-14.217
-41.885	-64.879
-37.136	-129.4
-32.412	-176.04
-29.676	145.98
-28.871	111.4
-30.047	78.36
-34.207	44.929
-50.675	-16.348
-36.153	174.5
-30.62	141.86
-28.9	113.19
-29.391	88.13
-31.946	70.674
-35.836	77.291
-34.256	102.14
-30.62	94.273
-28.796	71.785
-28.388	43.673
-28.909	10.916
-29.745	-27.738
-29.953	-71.689
-28.981	-114.91
-27.434	-152.68
-26.104	173.92
-25.441	142.33
-25.883	110.84
-27.052	78.562
-28.403	44.224
-29.03	-15.46
-28.559	174.53
-27.517	136.12
-26.586	99.225
-26.228	60.186
-26.727	17.284
-27.67	-30.733
-28.196	-81.787
-28.069	-129.46
-27.946	-169.86
-28.421	156.81
-29.713	130.06
-31.781	110.62
-34.312	100.57
-36.363	102.18
-36.254	109.27
-34.249	105.66
-32.171	87.771
-30.761	59.467
-30.028	23.697
-29.748	-17.353
-29.782	-61.225
-30.36	-105.81
-32.267	-151.6
-37.468	150.32
-38.638	15.225
-29.81	-51.589
-25.244	-92.877
-22.786	-128.62
-21.676	-161.49
-21.649	167.83
-22.663	139.66
-24.762	115.94
-27.692	101.35
-29.871	99.064
-29.906	93.947
-29.775	74.059
-30.828	41.679
-32.913	-4.5018
-33.919	-65.249
-32.418	-119.41
-30.729	-156.57
-29.689	177.33
-28.98	157.07
-28.4	137.72
-28.272	115.54
-29.228	89.166
-32.248	57.086
-40.209	1.043
-36.806	-138.18
-29.544	175.6
-26.218	141.76
-24.774	111.29
-24.567	83.605
-25.26	59.589
-26.459	40.781
-27.472	27.276
-27.775	14.289
-27.859	-3.3499
-28.569	-25.204
-30.551	-47.102
-34.341	-58.223
-36.306	-35.03
-31.687	-29.802
-28.093	-51.574
-26.067	-80.78
-25.144	-112.46
-25.116	-145.04
-25.924	-177.33
-27.512	152.26
-29.689	125.9
-31.949	105.44
-33.529	89.259
-34.316	71.544
-35.159	50.073
-36.873	29.403
-39.458	20.092
-39.922	28.903
-37.116	24.914
-35.138	2.7589
-35.356	-28.096
-39.319	-68.205
-46.797	154.39
-33.973	76.127
-28.489	37.41
-25.72	2.5208
-24.61	-30.859
-24.88	-63.31
-26.659	-95.047
-30.72	-125.11
-40.556	-141.63
-39.78	-41.94
-33.457	-64.147
-32.367	-98.422
-34.095	-142.35
-36.762	147.86
-34.049	70.068
-30.424	23.645
-28.579	-7.7402
-28.037	-30.584
-28.139	-46.231
-28.215	-56.764
-28.02	-66.433
-27.913	-77.827
-28.263	-89.775
-29.019	-99.645
-29.7	-106.67
-29.984	-114.43
-30.367	-126.56
-31.677	-141.86
-34.642	-153.23
-38.058	-139.13
-34.778	-121.56
-30.733	-140.12
-28.269	-172.35
-26.751	150.04
-25.78	110.06
-25.337	69.569
-25.694	29.901
-27.358	-7.8564
-31.463	-41.786
-43.951	-46.372
-34.362	46.187
-27.871	18.145
-25.088	-14.756
-24.195	-48.961
-24.806	-84.285
-27.034	-121.85
-31.706	-166.37
-40.049	105.51
-34.589	-8.9385
-30.207	-62.096
-28.49	-109.23
-27.847	-158.94
-27.201	147.31
-25.977	93.408
-24.541	43.911
-23.499	-0.52665
-23.15	-41.192
-23.603	-79.491
-25.02	-116.66
-27.849	-153.86
-33.587	166.56
-50.751	39.093
-33.737	-68.214
-28.765	-106.48
-26.619	-142.13
-25.974	-177.32
-26.501	146.79
-28.145	108.28
-30.793	62.239
-32.971	0.23405
-31.677	-64.368
-29.124	-110.68
-27.445	-145.52
-26.933	-174.79
-27.727	160.13
-30.235	141.84
-34.787	146.62
-33.357	-172.93
-27.878	-174.23
-24.646	166.69
-23.194	143.27
-23.236	119.76
-24.697	99.767
-27.38	89.867
-29.2	98.834
-27.321	104.43
-25.176	89.168
-24.554	62.546
-25.601	29.043
-28.31	-13.679
-31.649	-77.386
-31.055	-154.75
-28.845	148.91
-28.531	103.75
-30.806	58.942
-36.546	-5.0747
-35.768	-118.89
-30.172	-176.02
-27.828	145.41
-28.248	111.27
-29.354	79.322
-30.622	50.112
-31.206	-170.86
-30.872	167.01
-30.24	141.08
-29.941	118.38
-31.49	104.14
-33.357	107.01
-32.36	116.95
-30.045	111.82
-28.51	96.856
-27.818	78.374
-27.633	58.231
-27.657	35.686
-27.749	8.8311
-27.858	-23.765
-27.869	-61.895
-27.677	-103.43
-27.419	-145.53
-27.467	173.51
-28.204	134.03
-29.943	95.792
-33.074	58.714
-38.598	24.962
-49.775	31.503
-42.464	79.757
-36.983	43.215
-33.988	-0.58792
-32.106	-44.166
-31.133	-86.061
-31.129	-126.81
-32.179	-168.13
-34.243	146.38
-36.496	90.549
-36.614	28.327
-34.881	-20.751
-33.391	-55.543
-32.585	-81.806
-32.302	-103.15
-32.454	-122.15
-33.226	-140.18
-35.072	-155.85
-38.466	-159.95
-39.708	-132.53
-34.812	-124.45
-30.75	-143.33
-28.034	-171.41
-26.163	156.25
-24.837	121.5
-23.923	85.589
-23.389	49.558
-23.293	13.986
-23.754	-21.079
-24.959	-56.16
-27.232	-92.593
-31.198	-134.29
-37.426	160.09
-36.826	58.867
-32.73	5.1643
-31.094	-30.602
-31.145	-60.138
-32.32	-85.288
-33.943	-106.9
-35.062	-130.08
-35.03	-163.79
-33.49	151.73
-30.889	106.36
-28.478	64.634
-27.014	24.928
-26.782	-15.25
-27.905	-59.369
-30.103	-115.23
-30.675	170.46
-27.88	104.59
-25.323	55.902
-24.099	14.652
-24.125	-23.792
-25.274	-61.598
-27.46	-100.19
-30.617	-139.56
-34.581	-173.91
-37.738	176.91
-34.562	-179.74
-29.803	160.62
-26.526	133.17
-24.698	104.59
-24.224	76.924
-25.14	51.872
-27.618	32.509
-31.785	27.794
-34.365	54.448
-31.527	71.094
-29.246	67.033
-28.138	59.675
-27.346	52.939
-26.467	44.038
-25.842	30.12
-26.009	11.094
-27.445	-12.166
-30.798	-39.833
-37.696	-79.698
-43.027	163.41
-36.431	106.1
-34.461	83.119
-34.51	72.167
-34.833	69.313
-35.101	65
-37.344	56.981
-45.548	89.117
-35.379	153.36
-28.597	136.45
-25.139	110.92
-23.608	81.729
-23.758	48.819
-25.87	9.5806
-30.362	-48.808
-30.92	-146.44
-26.271	150.05
-23.874	107.03
-23.574	67.693
-25.235	26.218
-28.993	-26.642
-31.844	-111.67
-28.711	173.04
-26.596	123.8
-26.973	79.988
-30.206	29.623
-34.483	-60.491
-29.475	-147.71
-25.607	165.27
-24.266	126.69
-25.094	88.923
-28.577	46.074
-35.11	-32.809
-30.381	-134.84
-25.498	-179.09
-23.266	148.47
-22.653	119.97
-23.241	94.085
-24.794	70.254
-27.24	46.586
-30.925	17.365
-36.192	-38.883
-34.071	-129.98
-28.843	-178.51
-26.013	146.75
-24.953	115.02
-25.343	83.82
-27.281	51.606
-31.464	15.394
-40.302	-45.359
-38.441	-175.52
-33.215	139.38
-31.747	110.91
-32.031	91.861
-32.472	84.071
-31.237	79.367
-29.075	64.629
-27.39	41.292
-26.492	13.993
-26.375	-14.64
-27.09	-42.926
-28.815	-68.831
-31.826	-88.569
-36.232	-91.581
-38.014	-61.915
-34.066	-47.829
-30.487	-56.01
-27.928	-72.354
-26.208	-93.481
-25.342	-118.73
-25.5	-148.33
-26.997	176.39
-30.199	130
-33.405	55.689
-30.868	-21.974
-27.851	-72.227
-26.773	-113.69
-27.874	-154.93
-32.075	155.91
-37.869	51.336
-30.687	-37.579
-26.477	-81.778
-24.871	-119.8
-25.331	-157.35
-28.295	163.08
-36.201	108.03
-35.77	-40.953
-28.351	-92.788
-25.519	-130.34
-25.128	-166.13
-27.13	158.39
-33.367	122.02
-42.715	-73.878
-28.774	-116.96
-24.181	-150.86
-22.033	175.54
-21.368	141.97
-21.881	108.89
-23.436	76.656
-26.053	45.16
-30.056	13.656
-36.723	-20.721
-51.857	-119.14
-39.972	128.99
-35.651	98.862
-33.706	75.177
-32.496	54.025
-31.497	33.52
-30.587	12.639
-29.777	-8.7045
-29.075	-30.14
-28.462	-51.525
-27.956	-73.232
-27.686	-95.853
-27.907	-119.67
-29.009	-144.16
-31.603	-167.26
-37.103	178.79
-43.536	-122.09
-34.698	-97.968
-30.094	-113.37
-27.587	-132.73
-26.16	-152.01
-25.337	-170.27
-24.829	172.21
-24.523	154.42
-24.485	135.45
-24.88	115.05
-25.904	93.63
-27.796	72.199
-30.916	53.21
-35.697	44.621
-39.654	66.998
-37.294	82.5
-35.276	69.183
-35.044	45.975
-36.301	18.243
-38.809	-13.594
-42.036	-51.67
-44.418	-95.415
-44.69	-130.79
-43.631	-148.69
-41.636	-156.4
-39.153	-163.14
-36.762	-171.47
-34.625	179.12
-32.699	168.73
-30.976	156.93
-29.53	143.38
-28.47	128.03
-27.928	111.04
-28.098	92.645
-29.344	73.523
-32.491	56.139
-40.099	58.559
-37.756	140.22
-30.446	133.27
-27.059	112.05
-25.668	88.119
-25.834	63.818
-27.66	41.187
-31.774	25.923
-37.814	47.572
-34.228	83.41
-30.876	73.61
-30.376	56.199
-32.135	43.92
-34.699	53.413
-32.356	71.894
-28.707	60.974
-26.834	35.61
-26.566	3.8595
-27.557	-33.194
-29.335	-77.804
-30.838	-131.81
-30.951	172.41
-30.441	125.01
-30.327	86.34
-30.549	53.737
-30.432	23.995
-29.415	-6.6941
-27.593	-39.891
-25.554	-74.378
-23.939	-108.57
-23.206	-141.24
-23.646	-171.18
-25.598	163.43
-29.855	149.63
-34.18	-176.18
-28.374	-154.48
-24.526	-170.23
-23.059	168.15
-23.196	147.69
-24.442	131.79
-26.102	122.75
-27.202	117.23
-28.011	105.47
-30.176	82.422
-35.812	35.602
-35.363	-79.928
-28.289	-133.11
-24.975	-167.85
-23.934	160.63
-24.68	130.34
-27.236	100.65
-32.316	70.92
-43.443	38.99
-48.529	-161.59
-47.032	161
-47.3	-16.173
-34.715	-54.583
-29.465	-80.504
-26.807	-102.95
-25.615	-121.89
-25.246	-137.23
-25.243	-150.4
-25.534	-164.48
-26.585	177.82
-29.342	154.46
-36.2	113.21
-36.282	-18.146
-28.186	-64.588
-24.626	-94.422
-23.384	-121.97
-23.973	-148.84
-26.616	-176.68
-33.166	144.81
-36.143	9.3691
-27.042	-41.708
-23.192	-70.194
-21.631	-94.783
-21.649	-117.16
-23.258	-137.11
-27.289	-150.2
-34.127	-118.51
-28.079	-74.485
-23.604	-84.578
-21.917	-101.28
-21.973	-115.97
-23.089	-122.71
-23.509	-118.09
-21.836	-116.53
-19.923	-128.03
-18.973	-147.88
-19.198	-172.39
-20.754	159.74
-24.015	128.35
-29.989	89.498
-39.841	3.0576
-35.238	-101.48
-32.97	-146.28
-34.028	171.72
-36.662	117.2
-36.824	50.564
-34.559	4.8521
-32.822	-21.397
-31.538	-39.402
-30.548	-57.368
-30.299	-80.029
-31.444	-110.34
-34.581	-156.53
-36.37	121.51
-32.127	54.793
-29.053	16.033
-27.806	-12.92
-27.947	-36.309
-29.195	-53.339
-30.786	-60.476
-30.992	-61.572
-29.92	-71.208
-29.093	-91.597
-28.896	-118.97
-29.133	-150.94
-29.56	174.96
-30.1	142.17
-30.9	113.85
-32.214	92.117
-34.209	79.73
-36.265	82.158
-36.167	94.644
-34.652	97.383
-34.319	93.626
-35.609	100.33
-34.127	129.12
-28.787	135.7
-24.671	122
-22.154	101.21
-20.968	77.554
-21.029	52.539
-22.47	27.176
-25.77	3.2197
-32.381	-12.608
-41.222	50.071
-33.367	74.882
-31.241	58.811
-32.41	42.357
-36.123	38.251
-38.832	61.847
-37.768	74.387
-39.233	74.123
-42.201	112.13
-35.63	137.21
-31.546	119.63
-30.823	90.206
-33.877	45.802
-36.361	-66.039
-27.634	-139.4
-22.837	-179.81
-20.514	145.54
-19.819	112.86
-20.54	80.547
-22.997	47.296
-28.625	11.906
-52.987	-71.814
-31.639	128.09
-27.944	90.645
-27.897	51.836
-30.224	6.3513
-34.269	-57.994
-35.553	-144.59
-34.541	147.79
-36.119	89.668
-40.357	5.8683
-36.877	-97.399
-32.671	-156.06
-31.401	155.46
-32.46	103.5
-34.798	34.462
-34.107	-50.094
-31.396	-115.74
-30.123	-169.59
-30.276	136.06
-30.786	73.967
-30.141	6.9523
-28.773	-54.91
-28.017	-112.8
-27.764	-173.33
-26.546	123.36
-23.979	67.886
-21.396	23.479
-19.552	-13.753
-18.605	-46.545
-18.527	-76.001
-19.27	-102.65
-20.906	-126.68
-23.733	-146.85
-28.238	-155.6
-31.556	-131.71
-28.456	-119.97
-26.174	-137.51
-25.772	-165.98
-26.903	157.35
-29.104	108.66
-30.6	44.914
-29.929	-17.673
-29.22	-68.975
-29.734	-116.64
-31.228	-169.59
-31.956	128.88
-30.808	74.584
-29.611	37.72
-29.047	15.967
-28.191	5.1532
-26.408	-5.2612
-24.648	-22.344
-23.788	-44.486
-24.119	-68.481
-25.77	-91.333
-28.805	-107.71
-31.824	-106.64
-30.758	-103.66
-28.283	-127.15
-26.392	-167.12
-24.639	146.3
-22.897	100.04
-21.553	56.849
-20.933	16.294
-21.17	-23.033
-22.304	-62.905
-24.347	-105.71
-27.19	-154.65
-30.304	148.06
-33.15	86.687
-36.941	25.556
-43.3	-65.226
-38.285	-175
-33.613	136.03
-32.398	101.47
-34.286	78.355
-38.329	93.672
-33.173	121.98
-28.199	105.13
-25.835	76.763
-25.5	43.362
-27.27	4.366
-31.685	-49.858
-33.935	-149.51
-28.802	137.91
-25.762	90.42
-24.669	44.973
-24.691	-5.3833
-24.597	-61.884
-23.412	-116.12
-21.885	-160.34
-20.901	164.6
-20.694	136.67
-21.085	115.42
-21.571	99.919
-21.789	86.048
-22.115	69.443
-23.354	49.566
-26.57	29.598
-34.374	29.187
-31.989	104.01
-25.244	90.434
-22.479	61.524
-21.852	28.154
-22.912	-8.3715
-25.609	-49.164
-29.998	-99.621
-34.779	-172.38
-36.456	105.86
-39.86	31.139
-40.062	-112.61
-30.538	175.22
-25.591	129.16
-22.847	87.52
-21.503	46.733
-21.297	5.7978
-22.136	-35.301
-23.981	-76.37
-26.95	-117.47
-31.667	-158.29
-41.011	168.06
-43.746	-100.19
-35.594	-134.88
-32.633	175.97
-31.058	123.21
-29.899	69.488
-28.974	17.163
-28.445	-32.478
-28.474	-79.491
-29.104	-124.84
-30.291	-169.95
-31.852	143.69
-33.325	95.478
-34.007	47.371
-33.506	3.0179
-32.098	-36.784
-30.346	-74.17
-28.746	-110.85
-27.628	-147.14
-27.215	177.44
-27.722	143.7
-29.517	113.18
-33.43	91.427
-39.189	111.54
-33.899	143.64
-29.136	127.8
-26.764	103.52
-25.878	78.264
-26.029	54.15
-26.872	31.631
-28.121	9.065
-29.696	-17.856
-31.581	-56.103
-32.537	-111.83
-30.808	-170.58
-28.564	142.82
-27.595	103.37
-28.45	65.28
-31.923	21.146
-37.572	-66.333
-31.489	-158.67
-26.798	159.81
-24.75	129.12
-24.475	104.2
-25.537	86.464
-27.198	79.539
-27.893	82.185
-27.189	81.871
-26.58	74.111
-26.811	64.088
-27.616	56.443
-28.313	50.598
-28.904	40.381
-30.543	20.535
-35.24	-18.091
-37.703	-129.96
-29.725	167.76
-25.774	133.79
-24.173	104.84
-24.288	78.328
-26.077	55.182
-29.756	40.499
-34.345	50.029
-34.17	72.616
-33.035	69.031
-34.743	59.467
-38.735	75.677
-35.334	107.16
-31.098	94.043
-29.411	64.279
-29.491	23.502
-29.913	-30.021
-28.513	-87.196
-25.951	-132.38
-23.774	-167.03
-22.346	163.68
-21.663	137.25
-21.62	112.86
-22.043	89.791
-22.81	66.608
-23.936	41.442
-25.542	12.477
-27.641	-21.726
-29.717	-61.413
-30.607	-102.74
-30.335	-139.07
-29.632	-170.54
-28.754	158.15
-27.958	124.16
-27.418	87.042
-27.228	47.24
-27.399	5.0478
-27.898	-39.508
-28.673	-86.437
-29.623	-136.07
-30.579	169.55
-31.307	103
-31.583	18.724
-31.249	-56.474
-30.362	-119.88
-29.185	175.31
-27.974	107.75
-26.911	47.904
-26.103	-0.80361
-25.601	-42.072
-25.432	-79.048
-25.855	-112.74
-26.971	-141.66
-28.251	-161.14
-28.843	-165.84
-28.476	-168.26
-27.214	175.48
-26.923	149.37
-28.241	119.38
-32.016	90.896
-41.903	90.925
-35.533	169.21
-28.788	147.49
-25.631	118.15
-24.256	88.501
-24.16	60.583
-25.147	36.036
-27.064	17.547
-29.23	9.2693
-29.945	8.1172
-29.151	-1.015
-28.394	-22.387
-28.056	-53.777
-27.611	-93.304
-26.404	-135.63
-24.597	-173.72
-22.808	154.31
-21.394	126.73
-20.531	101.56
-20.394	77.925
-21.162	56.48
-22.905	39.602
-25.333	31.083
-27.407	32.511
-28.44	35.897
-29.83	36.992
-32.334	52.63
-29.876	86.402
-24.719	86.069
-21.449	68.153
-19.916	44.138
-19.906	17.396
-21.493	-10.998
-25.342	-41.547
-35.138	-82.832
-33.981	98.905
-26.69	58.213
-24.802	23.449
-25.591	-11.677
-29.025	-50.89
-36.672	-116.87
-34.046	117.29
-28.259	62.981
-25.739	19.85
-24.745	-22.538
-24.372	-64.685
-24.072	-104.63
-23.721	-140.25
-23.48	-170.95
-23.546	162.7
-24.05	139.95
-25.09	120.24
-26.846	103.36
-29.754	91.129
-34.281	94.972
-35.132	132.26
-30.88	139.44
-28.528	124.94
-28.065	104.96
-29.195	83.608
-32.052	63.045
-37.08	48.717
-42.947	55.73
-43.732	53.043
-40.646	-0.94277
-34.245	-49.627
-29.044	-81.975
-25.461	-108.25
-23.077	-131.81
-21.567	-153.86
-20.761	-175.36
-20.649	162.93
-21.352	140.66
-23.074	117.72
-26.254	92.927
-32.364	58.812
-38.641	-56.041
-29.636	-121.89
-25.563	-151.78
-23.783	-177.05
-23.393	158.64
-24.25	133.13
-26.813	103.38
-32.476	57.78
-34.551	-52.491
-27.549	-110.35
-23.82	-142.59
-22.006	-170.9
-21.665	161.19
-22.871	133.34
-26.094	106.01
-33.672	78.589
-39.903	-122.5
-28.289	-152.26
-24.462	179.54
-22.975	151.32
-22.812	122.58
-23.6	91.436
-25.244	54.369
-27.452	6.5925
-28.763	-51.809
-28.337	-105.48
-27.902	-146.71
-28.811	-179.88
-32.508	154.37
-41.995	-173.75
-31.938	-126.85
-26.596	-148.02
-24.219	-173.86
-23.562	159.56
-24.574	133.61
-27.796	113.37
-33.155	121.09
-31.366	154.75
-27.632	146.32
-26.488	124.29
-27.875	99.943
-32.916	83.936
-38.259	139.99
-30.347	153.71
-27.012	131.78
-26.535	105.19
-28.796	79.325
-35.981	69.641
-35.1	149.35
-27.511	136.48
-24.32	107.47
-23.186	74.386
-23.456	38.162
-24.816	-1.8444
-26.862	-46.595
-28.924	-94.945
-30.678	-141.03
-32.898	-178.61
-37.015	157.99
-43.204	178.59
-39.065	-139.52
-34.632	-139.59
-31.609	-145.45
-28.98	-154.97
-26.892	-169.85
-25.786	170.62
-26.052	148.67
-28.119	127.52
-32.911	114.3
-39.807	151.9
-34.133	-173.33
-31.475	174.3
-32.892	161.83
-37.053	-173.09
-31.043	-134.94
-25.307	-145.77
-22.001	-168.04
-20.348	165.48
-20.055	136.95
-20.924	107.07
-22.774	74.438
-25.327	34.6
-27.355	-17.829
-26.949	-72.701
-25.454	-114.11
-24.5	-144.35
-24.329	-168.02
-24.849	172.74
-25.934	157.24
-27.399	145.16
-29.092	135.23
-31.176	125.84
-34.176	117.91
-38.314	119.63
-40.348	136.82
-39.173	127.08
-37.913	77.011
-33.423	14.518
-28.336	-30.291
-24.755	-65.738
-22.658	-98.319
-21.978	-130.53
-22.904	-163.45
-26.057	161.5
-33.635	112.38
-34.644	-27.146
-27.144	-76.441
-24.175	-106.69
-23.265	-131.79
-23.583	-152.12
-24.443	-167.57
-25.334	178.8
-26.543	162.35
-29.201	141.93
-36.002	124.24
-40.997	-135.86
-30.975	-147.29
-27.902	178.34
-27.803	136.07
-30.169	80.039
-32.088	-9.5811
-27.64	-93.771
-23.418	-150.53
-20.702	160.38
-19.138	113.25
-18.594	66.794
-19.129	20.464
-21.036	-27.586
-25.027	-84.686
-29.309	178.54
-24.658	87.178
-21.025	34.677
-19.642	-7.7446
-20.103	-46.813
-22.849	-83.975
-30.678	-114.05
-33.189	-5.8294
-23.848	-30.873
-20.601	-66.83
-19.632	-105.51
-20.362	-147.35
-22.873	165.34
-27.204	103.15
-29.056	11.367
-25.787	-59.926
-23.681	-107.8
-23.434	-146.49
-25.075	-176.31
-28.141	174.91
-27.159	-170.16
-22.994	179.79
-20.191	154.07
-18.766	123.27
-18.472	89.633
-19.284	52.856
-21.297	11.163
-24.283	-39.572
-26.385	-101.96
-25.85	-158.24
-24.714	163.08
-24.104	135.88
-24.011	115.11
-24.337	98.124
-25.071	83.978
-26.138	73.204
-27.156	66.087
-27.678	58.716
-28.192	44.189
-29.983	18.458
-34.253	-30.316
-33.922	-128.59
-27.621	173.28
-24.022	134.99
-22.619	100.77
-23.123	68.978
-25.726	41.544
-31.457	30.984
-32.7	78.691
-26.463	73.051
-23.472	42.658
-22.433	5.9764
-22.61	-34.306
-23.637	-77.926
-25.397	-124.8
-28.074	-174.8
-32.301	129.37
-38.25	47.271
-36.582	-58.048
-33.105	-117.05
-32.423	-160.57
-34.481	160.02
-40.937	114.98
-45.918	-25.762
-36.934	-76.154
-32.822	-92.869
-29.138	-104.26
-25.53	-121.2
-22.65	-145.16
-20.843	-174.42
-20.312	152.9
-21.205	118.82
-23.721	85.019
-28.772	53.647
-42.152	59.475
-31.803	134.41
-25.969	101.81
-23.259	64.83
-21.806	28.774
-21.004	-4.9219
-20.632	-35.901
-20.6	-64.295
-20.836	-91.031
-21.383	-118.31
-22.542	-149.45
-24.848	169.51
-27.81	102
-25.504	16.218
-21.416	-40.898
-19.232	-84.602
-18.768	-124.24
-19.938	-163.84
-23.247	151.63
-29.785	81.463
-28.651	-35.909
-24.222	-97.086
-23.323	-144.68
-25.203	163.56
-28.304	84.956
-25.083	-3.8431
-21.117	-58.315
-19.534	-100.28
-20.285	-136.45
-23.985	-164.3
-32.007	-145.03
-24.813	-101.06
-19.55	-123.41
-17.385	-154.66
-17.31	171.82
-19.283	138.27
-24.226	106.81
-40.49	109.56
-27.344	-155.99
-22.256	172.57
-21.02	136.8
-22.316	98.391
-26.571	54.082
-34.875	-32.288
-29.278	-143.21
-25.044	171.07
-23.972	136.1
-25.095	107.47
-28.032	91.95
-29.573	100.14
-26.997	96.563
-25.013	70.347
-24.527	32.647
-25.01	-14.571
-25.412	-70.759
-24.861	-128.21
-24.066	-178.46
-24.074	138.91
-25.479	102.41
-28.86	74.07
-34.639	70.177
-34.684	104.3
-30.87	98.282
-29.427	76.956
-29.648	54.404
-30.664	35.309
-31.138	19.017
-30.276	-3.6318
-28.673	-37.021
-26.846	-75.819
-25.151	-113.91
-23.939	-148.28
-23.424	-177.78
-23.569	159.03
-23.849	143.57
-23.395	132.42
-22.304	117.72
-21.504	96.916
-21.66	71.621
-23.395	43.844
-28.224	18.14
-39.886	68.379
-27.281	101.75
-22.191	73.143
-19.743	39.601
-18.652	3.5961
-18.572	-34.495
-19.403	-74.095
-21.128	-114.6
-23.918	-156.08
-28.575	159.14
-38.155	86.696
-33.661	-54.477
-27.531	-103.25
-24.794	-139.38
-23.668	-170.87
-23.661	161.23
-24.602	137.76
-26.231	121.24
-27.705	113.89
-27.821	110.24
-26.942	99.256
-26.362	78.374
-26.71	48.946
-28.006	9.3931
-29.158	-45.243
-27.84	-106.37
-25.198	-154.97
-23.264	167.68
-22.39	137.21
-22.438	112.13
-23.197	92.509
-24.319	79.285
-25.168	71.714
-25.431	64.758
-25.713	54.573
-26.782	42.559
-29.268	33.628
-33.534	42.765
-33.28	87.081
-27.865	98.702
-23.86	90.133
-21.01	74.955
-19.028	55.836
-17.903	33.897
-17.701	10.257
-18.536	-14.067
-20.717	-37.909
-25.146	-57.176
-33.152	-39.118
-28.495	8.7738
-24.135	-6.8974
-22.696	-33.045
-23.035	-62.73
-24.871	-94.988
-28.057	-128.98
-31.721	-161.57
-33.103	173.77
-30.429	151.81
-26.686	124.11
-24.075	93.177
-23.178	62.152
-24.266	33.68
-28.224	13.566
-34.716	49.766
-26.724	78.023
-22.17	53.871
-20.695	21.07
-21.487	-16.702
-24.486	-65.639
-27.276	-147.4
-23.634	134.3
-20.588	86.347
-19.801	48.924
-21.092	16.76
-25.044	-8.9788
-33.739	1.2207
-28.906	55.326
-24.707	33.903
-24.61	0.70929
-27.951	-42.562
-33.181	-131.73
-27.575	140.09
-23.936	97.744
-23.435	66.678
-25.65	46.703
-29.268	56.517
-26.666	80.086
-23.141	69.753
-21.993	47.484
-23.265	22.76
-27.946	3.2351
-36.443	47.075
-28.273	78.786
-25	56.632
-25.349	26.89
-29.71	-11.232
-38.231	-130.58
-27.714	146.47
-23.814	113.08
-22.979	88.201
-24.008	72.428
-25.536	70.811
-25.276	75.844
-24.304	70.567
-24.85	59.537
-27.599	59.767
-27.255	91.114
-21.984	92.19
-18.689	69.619
-17.37	39.241
-17.619	3.7052
-19.294	-39.617
-21.828	-99.126
-22.084	-175.65
-19.793	120.63
-18.235	71.43
-18.008	27.34
-19.046	-16.886
-21.413	-65.477
-25.058	-124.78
-28.081	157.29
-27.561	80.554
-26.272	22.852
-25.889	-23.848
-26.648	-63.288
-28.776	-92.802
-31.728	-101.05
-31.13	-89.648
-28.002	-96.338
-26.101	-114.93
-25.758	-135.05
-26.783	-150.66
-28.41	-155.79
-28.893	-152.77
-28.402	-155.22
-28.785	-162.74
-30.532	-163.58
-31.101	-146.91
-28.223	-139.47
-25.802	-151.9
-25.18	-172.87
-26.582	163.27
-30.834	139.78
-43.599	134.71
-36.547	-111.31
-31.528	-132.42
-31.758	-156.71
-37.543	-175.11
-41.495	-58.083
-30.323	-64.504
-26.032	-83.646
-23.877	-101.95
-22.669	-118.61
-21.882	-135.45
-21.489	-155.26
-21.825	179.66
-23.41	147.05
-26.686	100.68
-29.313	25.904
-26.66	-44.083
-24.136	-88.256
-23.437	-122.54
-24.583	-150.48
-27.28	-166.55
-28.996	-164.4
-27.54	-169.34
-26.122	164.88
-26.04	123.95
-27.095	68.744
-27.926	0.11887
-27.384	-70.794
-26.055	-133.96
-24.516	169.93
-23.209	118.99
-22.363	72.633
-22.073	30.951
-22.547	-6.171
-23.991	-39.452
-26.457	-69.153
-29.913	-92.423
-33.759	-95.209
-35.74	-60.406
-35.05	-42.352
-34.175	-19.743
-29.416	-8.5324
-25.156	-23.223
-22.794	-48.459
-22.073	-77.253
-22.744	-106.68
-24.767	-134.6
-28.248	-156.31
-32.191	-159.25
-31.899	-152.19
-29.8	-170.82
-29.331	154
-31.209	106.64
-35.207	26.532
-30.656	-75.828
-24.684	-131.18
-20.994	-173.8
-18.963	146.73
-18.425	108.68
-19.366	72.364
-21.964	38.078
-27.302	6.4704
-43.788	19.279
-30.185	95.238
-25.654	58.453
-24.648	15.147
-25.005	-33.581
-25.332	-86.398
-25.205	-136.47
-25.622	-178.17
-27.807	152.04
-32.056	150.19
-30.67	-179.61
-26.483	175.74
-24.787	159.49
-25.154	147.81
-25.899	152.65
-23.525	162.73
-20.06	154.43
-17.818	134.78
-17.036	110.93
-17.708	86.313
-20.048	63.559
-24.924	49.662
-30.752	86.322
-24.99	111.43
-21.667	94.014
-20.924	69.977
-21.997	45.223
-24.881	22.022
-30.313	6.3047
-37.477	31.298
-35.065	57.107
-35.368	34.047
-42.548	-37.312
-34.11	-156.71
-27.311	163.22
-23.826	130.81
-22.1	99.67
-21.627	68.823
-22.156	38.231
-23.454	7.8178
-25.199	-23.296
-26.932	-57.034
-28.01	-95.149
-27.923	-136.16
-26.916	-176.02
-25.691	146.9
-24.727	111.5
-24.267	75.99
-24.315	38.748
-24.442	-1.6521
-24.602	-47.735
-24.733	-106.05
-24.784	-178.33
-24.602	119.33
-24.123	71.176
-23.508	28.951
-22.935	-11.42
-22.537	-51.563
-22.396	-91.939
-22.609	-132.18
-22.86	-171.54
-22.959	150.37
-22.877	113.01
-22.772	74.927
-22.915	34.382
-23.472	-9.9576
-24.144	-58.639
-24.141	-109.8
-23.079	-158.02
-21.592	159.88
-20.429	122.93
-19.982	89.982
-20.325	60.937
-21.349	35.659
-22.966	13.162
-25.333	-8.5981
-29.263	-33.54
-37.882	-83.648
-33.476	144.81
-25.908	106.54
-21.916	77.371
-19.692	48.224
-18.836	17.997
-19.275	-13.277
-21.104	-46.089
-24.789	-83.517
-31.447	-142.55
-31.768	106
-27.017	49.469
-25.615	13.504
-26.594	-13.536
-29.376	-26.627
-30.951	-14.89
-27.986	-10.852
-25.057	-29.108
-23.405	-56.642
-22.839	-87.488
-23.126	-118.14
-23.983	-145.41
-24.94	-166.49
-25.236	178.46
-24.491	163.52
-23.429	143.47
-22.848	119.04
-23.022	92.166
-24.01	63.058
-25.926	29.859
-28.758	-11.953
-31.026	-67.822
-30.128	-122.17
-27.859	-157.83
-25.801	177.69
-24.202	157.27
-23.202	138.25
-22.878	120.94
-23.088	106.75
-23.472	96.247
-23.679	87.837
-23.742	78.64
-24.084	67.838
-25.025	57.894
-26.395	53.187
-27.095	56.035
-26.094	56.953
-24.668	46.684
-24.09	28.459
-24.636	6.7549
-26.372	-16.301
-29.574	-39.384
-34.836	-59.908
-43.174	-76.931
-51.299	179.32
-38.179	128.44
-31.146	103.18
-26.694	74.234
-23.95	41.591
-22.593	6.4628
-22.415	-30.139
-23.33	-67.906
-25.503	-106.73
-29.777	-144.62
-39.904	-158.5
-34.308	-86.66
-27.131	-119.71
-23.316	-161.25
-20.952	155.67
-19.536	112.35
-18.82	69.129
-18.644	25.654
-18.987	-18.676
-19.993	-63.736
-21.897	-108.03
-25.02	-149.17
-30.239	176.12
-41.441	-178.56
-33.824	-115.36
-28.399	-143.8
-26.672	-178.93
-27.174	146.34
-29.546	114.13
-33.999	87.294
-40.125	80.869
-39.663	84.359
-34.856	40.56
-29.315	-8.8687
-24.623	-48.898
-21.196	-82.991
-18.902	-113.86
-17.593	-142.4
-17.109	-168.6
-17.265	167.41
-17.916	144.77
-19.06	121.77
-20.921	95.654
-23.959	60.492
-27.502	-1.7309
-24.993	-80.349
-20.72	-128.18
-18.233	-163.04
-17.23	167.06
-17.406	140.17
-18.697	116.02
-21.284	96.747
-24.981	91.429
-26.158	105.09
-24.063	100.96
-22.834	76.938
-22.932	41.278
-23.74	-5.8695
-23.937	-63.007
-22.887	-119.4
-21.748	-169.14
-21.416	144.28
-22.1	96.098
-23.479	42.141
-24.422	-18.754
-24.026	-79.2
-23.121	-133.76
-22.55	173.87
-22.283	119.42
-21.773	63.854
-20.855	12.969
-20.047	-30.095
-19.856	-66.482
-20.61	-97.826
-22.6	-124.04
-26.099	-141.86
-30.753	-142.26
-33.797	-122.3
-35.261	-99.119
-33.597	-59.171
-27.575	-48.733
-23.395	-61.685
-21.168	-81.2
-20.459	-102.18
-21.083	-122.29
-23.014	-138.99
-26.088	-147.79
-29.163	-145.55
-31.811	-145.61
-41.485	-162.16
-32.436	6.6666
-23.377	-18.917
-18.849	-45.82
-16.457	-74.186
-15.693	-103.28
-16.429	-132.06
-18.79	-159.81
-23.665	174.16
-37.741	164.61
-28.914	-74.727
-23.44	-98.975
-22.188	-124.54
-23.128	-146.53
-25.494	-160.06
-27.686	-160.52
-27.823	-160.44
-27.658	-173.69
-28.923	164.52
-32.296	141.86
-37.666	137.32
-36.577	152.96
-31.94	123.08
-28.145	76.844
-24.953	29.778
-22.594	-15.409
-21.281	-59.472
-21.104	-103.21
-22.089	-147.74
-24.384	163.63
-28.137	99.451
-28.956	2.7151
-24.398	-71.854
-21.125	-122.43
-19.463	-163.84
-19.015	160.22
-19.619	129.23
-21.164	105.1
-22.969	91.657
-23.355	85.095
-22.459	69.949
-22.105	42.428
-23.116	5.165
-25.478	-42.513
-28.003	-104.05
-28.907	-170.81
-29.912	128.02
-33.409	50.424
-30.272	-61.872
-24.113	-122.22
-20.915	-163.66
-19.794	160.83
-20.626	128.17
-24.343	99.926
-34.635	111.98
-26.994	177.63
-21.785	156.55
-20.187	128.37
-21.143	97.991
-25.844	68.031
-44.337	127.98
-25.998	168.91
-21.647	139.93
-20.589	108.3
-21.798	73.768
-25.667	32.371
-32.484	-41.582
-29.815	-140.94
-26.368	175.2
-25.873	147.98
-27.139	133.48
-28.002	133.15
-26.922	129.54
-26.024	111.81
-26.641	84.265
-29.191	49.302
-33.886	6.6181
-39.906	-35.864
-40.667	-29.338
-32.321	-39.339
-26.386	-69.161
-22.78	-102.33
-20.998	-137.43
-20.965	-175.11
-22.913	142.33
-27.116	84.755
-28.999	-7.8761
-25.274	-77.784
-23.347	-125.05
-23.798	-169.41
-26.675	137.38
-29.331	54.047
-25.876	-21.251
-22.928	-65.323
-21.812	-97.604
-22.02	-123.36
-22.965	-143.83
-23.979	-162.59
-24.917	172.28
-25.96	131.94
-25.736	73.394
-23.169	15.603
-20.664	-30.399
-19.443	-69.572
-19.726	-105.64
-21.789	-139.56
-26.341	-168.24
-34.225	-168.64
-33.179	-134.27
-29.885	-164.74
-28.169	137.91
-25.637	73.874
-23.429	19.054
-22.868	-27.261
-24.2	-70.706
-27.824	-122.78
-31.02	143.48
-26.247	60.504
-23.792	10.139
-25.105	-30.588
-32.577	-66
-32.946	81.237
-22.745	49.166
-18.828	16.321
-17.683	-16.531
-18.901	-45.883
-22.476	-62.739
-25.321	-45.236
-21.497	-38.108
-18.344	-62.428
-16.939	-99.026
-16.56	-143.43
-16.361	166.06
-15.783	113.86
-15.13	65.113
-15.079	21.471
-16.071	-17.371
-18.431	-51.452
-22.805	-77.856
-29.879	-73.071
-27.619	-34.586
-23.595	-50.849
-22.289	-79.822
-22.542	-111.32
-23.597	-143.18
-24.637	-175.13
-24.722	151.57
-23.471	115.58
-21.427	77.877
-19.335	40.212
-17.653	3.2185
-16.659	-33.121
-16.615	-68.448
-17.825	-101.16
-20.661	-127.09
-25.146	-132.81
-25.466	-107.74
-21.618	-112.7
-19.909	-138.29
-21.055	-171.29
-26.813	147.51
-32.311	-8.2137
-21.199	-64.569
-16.848	-97.033
-14.97	-126.64
-14.882	-154.22
-16.498	-177.21
-19.676	170.92
-22.505	-179.35
-21.621	-167.77
-20.483	-174.84
-21.4	172.15
-24.843	169.3
-26.802	-158.12
-22.7	-144.19
-20.294	-155.12
-20.207	-169.39
-21.999	-176.12
-23.725	-163.09
-21.701	-147.78
-19.059	-152.45
-17.922	-165.66
-18.238	-178.13
-19.263	176.3
-19.514	176.83
-18.665	171.89
-18.177	156.46
-19.111	133.01
-22.235	101.54
-28.806	44.024
-27.376	-66.419
-22.11	-116.36
-20.361	-150.6
-21.187	179.31
-24.912	151.99
-36.582	130.26
-30.88	-82.932
-23.764	-104.52
-21.014	-126.22
-20.043	-147.13
-20.215	-167.62
-21.388	171.4
-23.706	148.39
-27.599	118.9
-32.755	64.489
-31.287	-11.196
-27.188	-47.79
-24.585	-68.206
-22.868	-83.978
-21.782	-99.796
-21.542	-118.06
-22.798	-140.02
-27.534	-167.04
-42.544	18.24
-24.248	-34
-19.326	-61.942
-17.16	-87.787
-16.573	-112.97
-17.489	-137.57
-20.318	-158.63
-25.557	-164.21
-28.698	-129.85
-25.691	-115.92
-24.51	-123.6
-25.506	-129.79
-26.924	-120.15
-25.198	-107.14
-22.814	-113.02
-22.01	-128.2
-23.052	-143.72
-25.913	-149.58
-27.915	-130.96
-25.319	-119.26
-23.113	-130.75
-22.829	-150.76
-24.648	-172.64
-29.354	170.09
-38.19	-167.48
-34.747	-115.64
-33.451	-123.04
-39.775	-108.19
-31.683	-32.405
-23.938	-47.244
-20.001	-71.905
-18.146	-98.489
-17.856	-124.94
-19.004	-150.18
-21.83	-173.15
-27.513	169.45
-40.872	-143.49
-29.473	-78.207
-24.6	-86.901
-22.071	-97.31
-20.274	-108.11
-18.913	-121.3
-18.242	-137.59
-18.632	-155.49
-20.449	-171.96
-24.377	179.85
-29.541	-146.25
-23.64	-108.24
-18.38	-117.64
-15.352	-137.83
-13.824	-161.45
-13.467	174.05
-14.101	149.9
-15.695	126.73
-18.454	105.64
-22.903	91.413
-28.409	104.49
-27.194	130.93
-24.933	120.02
-25.104	94.598
-27.766	58.914
-32.859	-7.4033
-29.991	-103.38
-25.082	-150.86
-22.444	177.7
-20.923	152.46
-19.772	129.86
-18.679	106.67
-17.74	80.473
-17.23	50.917
-17.284	19.202
-17.856	-13.775
-18.918	-48.161
-20.626	-84.602
-23.405	-123.61
-28.289	-165.57
-40.319	141.03
-35.584	-54.987
-28.776	-101.71
-26.209	-144.48
-25.552	173.94
-26.454	133.57
-29.25	93.982
-35.95	50.546
-43.392	-115.12
-32.154	-172.29
-28.668	157.31
-27.63	136.53
-27.224	127.03
-25.7	123.17
-23.317	112.65
-21.444	94.586
-20.544	73.423
-20.563	52.215
-21.361	32.653
-22.758	16.012
-24.415	2.7213
-26.022	-9.9976
-27.988	-27.092
-31.509	-52.287
-38.835	-100.82
-38.827	137.68
-33.159	88.818
-32.066	59.855
-34.169	47.445
-34.501	70.268
-29.174	69.818
-25.368	42.331
-23.188	4.5359
-21.867	-39.474
-20.784	-86.864
-19.711	-133.77
-18.865	-177.34
-18.564	143.01
-19.01	106.83
-20.326	73.684
-22.586	43.954
-25.689	19.269
-28.869	1.2447
-30.728	-17.145
-31.302	-48.219
-31.249	-89.74
-31.135	-130.65
-32.086	-162.68
-34.85	-172.62
-33.382	-148.8
-27.848	-158.02
-24.621	173.11
-23.443	138.12
-23.872	98.218
-25.658	49.134
-27.665	-17.201
-27.357	-92.195
-26.358	-155.85
-26.905	143.64
-27.939	68.02
-25.044	-13.279
-20.943	-71.963
-18.343	-118.85
-17.257	-161.57
-17.392	156.48
-18.491	111.9
-20.199	60.729
-21.715	2.2059
-22.576	-54.779
-23.771	-101.35
-26.564	-135.9
-32.333	-151.07
-36.314	-103.63
-31.271	-88.853
-29.553	-92.809
-28.384	-86.118
-25.087	-82.6
-21.823	-95.09
-20.116	-116.42
-20.272	-139.66
-22.436	-158.02
-26.154	-156.65
-25.488	-132.61
-21.806	-138.94
-20.011	-163.45
-20.077	165.09
-21.645	127.98
-24.278	81.515
-26.704	22.921
-28.248	-32.814
-32.184	-60.617
-31.339	-12.399
-22.848	-20.176
-18.064	-47.599
-15.344	-78.445
-14.137	-110.5
-14.282	-142.37
-15.671	-172.76
-18.294	159.29
-22.351	135.86
-27.939	123.56
-33.402	129.08
-39.528	136.48
-40.622	-111.31
-29.12	-121.26
-23.657	-153.11
-20.471	168.25
-18.794	125.9
-18.264	82.45
-18.573	39.128
-19.572	-4.9891
-21.247	-53.176
-23.221	-111.24
-23.733	-179.25
-22.276	121.28
-20.968	77.764
-20.564	46.663
-20.677	26.48
-20.319	14.381
-19.094	1.5597
-17.946	-17.194
-17.701	-39.616
-18.66	-61.723
-20.931	-78.538
-23.947	-80.2
-24.096	-66.209
-21.544	-69.442
-20.01	-88.212
-20.153	-111.67
-21.962	-133.26
-25.222	-145.36
-28.028	-138.63
-27.554	-131.99
-27.087	-143.57
-29.46	-162.54
-39.564	-150.77
-29.853	-71.964
-23.182	-95.707
-20.192	-125.9
-19.073	-157.46
-19.29	170.04
-20.706	135.64
-23.298	96.807
-26.509	47.768
-27.74	-11.536
-26.041	-58.228
-23.775	-88.794
-21.726	-113.5
-20.223	-138.33
-19.619	-164.64
-20.15	168.54
-22.008	143.17
-25.437	124.02
-29.31	125.1
-28.256	131.78
-25.482	106.81
-23.244	64.989
-20.935	18.936
-18.739	-24.412
-17.286	-63.603
-17.027	-98.668
-18.215	-128.43
-21.061	-149.11
-25.178	-147.35
-24.688	-121.31
-21.097	-123.95
-19.363	-142.1
-19.49	-162.32
-21.043	-179.13
-23.658	170.48
-27.178	169.45
-31.512	-169.74
-29.313	-120.49
-23.021	-115.72
-18.836	-132
-16.296	-155.51
-15.023	176.97
-14.959	146.58
-16.226	114.46
-19.111	82.04
-24.628	51.876
-38.757	67.633
-27.485	133.97
-22.21	101.07
-20.14	63.375
-19.791	26.468
-20.905	-6.8176
-23.928	-31.651
-28.897	-22.144
-24.36	9.5301
-19.007	-8.0368
-16.303	-36.922
-15.435	-67.731
-16.118	-98.068
-18.576	-126.38
-24.07	-146.4
-31.361	-95.104
-22.795	-75.227
-18.845	-98.999
-17.339	-127.79
-17.203	-157.44
-17.91	172.92
-19.085	142.85
-20.452	111.01
-21.882	75.636
-23.453	35.179
-25.419	-12.42
-27.628	-73.191
-27.431	-149.97
-23.868	144.6
-20.445	95.632
-18.199	53.806
-17.201	15.317
-17.395	-20.791
-18.743	-54.993
-21.428	-88.051
-26.327	-120.36
-38.382	-141.66
-34.19	-32.61
-28.214	-68.921
-26.22	-114.1
-25.013	-163.27
-23.619	148.36
-22.373	104.38
-22.024	65.062
-23.138	30.647
-26.278	3.5955
-32.697	-2.766
-33.869	57.914
-27.245	61.227
-23.952	43.697
-22.546	23.788
-22.285	5.846
-22.512	-8.2873
-22.552	-20.135
-22.23	-34.431
-22.018	-54.379
-22.412	-80.122
-23.706	-111.55
-26.147	-150.73
-29.86	154.43
-31.957	70.754
-28.938	-5.0204
-25.853	-58.159
-23.723	-102.3
-22.328	-142.35
-21.694	-179.83
-22.071	145.52
-23.752	116.22
-26.77	98.589
-29.392	102.74
-28.25	110.53
-26.446	99.897
-26.288	80.874
-28.43	63.521
-33.007	70.404
-30.637	106.09
-25.897	96.428
-23.712	71.402
-23.4	40.814
-24.734	3.513
-27.47	-50.778
-27.377	-132.16
-23.086	165.01
-19.877	122
-18.143	86.579
-17.459	55.199
-17.464	26.497
-17.886	-0.64906
-18.533	-27.648
-19.311	-56.282
-20.25	-88.169
-21.412	-123.53
-22.658	-160.7
-23.671	162.43
-24.344	126.77
-25.023	91.5
-26.587	54.976
-31.023	17.488
-52.743	30.108
-31.528	114.25
-25.762	81.461
-22.731	45.613
-21.08	3.6444
-20.769	-47.465
-21.42	-107.6
-21.386	-170.83
-19.975	133.4
-18.304	86.191
-17.415	41.944
-18.275	-2.5266
-22.099	-47.003
-33.556	-108.97
-26.523	84.369
-19.448	42.918
-16.247	5.9906
-15.213	-31.146
-16.189	-67.459
-19.541	-101.18
-28.301	-126.18
-28.504	-12.141
-20.034	-38.33
-17.386	-72.649
-17.28	-107.43
-19.246	-142.74
-24.405	177.68
-38.457	58.568
-25.095	-50.58
-21.475	-90.085
-21.643	-122.56
-25.231	-144.43
-30.172	-106.27
-21.866	-89.73
-17.039	-116.7
-14.675	-150.23
-13.761	173.95
-13.958	135.84
-15.274	94.577
-17.893	48.542
-21.922	-7.3788
-25.739	-86.214
-24.856	-170.74
-22.893	126.78
-22.401	74.455
-23.518	26.766
-26.595	-16.014
-33.696	-43.659
-35.325	28.4
-26.531	11.861
-22.483	-21.624
-20.363	-56.105
-19.487	-90.207
-19.791	-123.75
-21.563	-155.77
-25.592	176.66
-35.471	173.87
-30.245	-93.045
-22.489	-109.69
-18.276	-136.41
-15.659	-166.38
-14.136	162.21
-13.436	130.05
-13.438	96.705
-14.249	61.09
-16.237	21.897
-20.066	-24.23
-26.02	-96.94
-24.266	159.57
-19.587	103.1
-17.086	61.246
-16.167	22.922
-16.641	-13.497
-18.537	-47.055
-22.13	-75.03
-28.221	-86.463
-31.522	-43.646
-26.277	-34.175
-23.259	-49.121
-21.475	-66.066
-19.875	-83.144
-18.178	-103.08
-16.635	-127.75
-15.606	-157.29
-15.445	169.16
-16.468	133.26
-18.959	96.551
-23.577	58.189
-33.896	1.4406
-31.019	-161.53
-24.809	148.42
-23.679	105.34
-26.17	60.084
-33.765	-18.136
-27.357	-142.5
-20.84	170.31
-17.519	133.58
-15.914	100.46
-15.379	70.037
-15.53	41.116
-16.259	11.593
-17.76	-21.013
-20.365	-59.812
-23.828	-112.71
-24.686	174.62
-21.682	114.64
-18.989	69.996
-17.589	29.429
-17.473	-10.716
-18.379	-51.549
-19.848	-94.446
-21.335	-139.65
-22.553	177.72
-23.505	147.29
-23.104	132.11
-20.916	117.04
-18.695	94.333
-17.398	66.003
-17.473	33.315
-19.6	-3.8023
-25.517	-51.536
-30.913	174.42
-22.185	104.11
-18.893	65.003
-18.473	30
-20.987	-2.2086
-30.057	-12.687
-24.617	70.81
-17.607	42.706
-14.833	4.6666
-14.01	-37.275
-14.304	-84.582
-14.962	-140.06
-15.07	157.88
-14.608	97.679
-14.51	43.816
-15.284	-6.125
-16.927	-57.976
-18.802	-119.86
-18.997	168.43
-17.661	104.81
-17.142	53.93
-18.315	12.457
-21.602	-18.773
-27.157	-21.887
-25.452	7.4565
-20.976	-9.4353
-18.917	-41.709
-18.494	-77.922
-19.273	-114.63
-21.028	-148.31
-23.342	-172.59
-24.373	178.81
-22.077	170.05
-18.775	146.59
-16.214	113.91
-14.816	77.388
-14.671	40.819
-15.678	7.1584
-17.7	-20.944
-20.411	-39.17
-22.313	-44.192
-21.921	-50.176
-21.254	-70.021
-22.296	-101.07
-27.039	-146.27
-31.767	81.335
-28.505	9.5817
-23.614	-28.717
-20.504	-62.565
-19.484	-95.538
-21.038	-126.8
-25.359	-147.04
-28.737	-102.22
-26.086	-85.515
-21.816	-106.11
-18.966	-133.44
-18.014	-163.71
-18.489	164.91
-19.874	133.26
-21.962	99.669
-24.118	58.16
-25.107	0.34036
-24.375	-57.442
-22.581	-99.098
-21.58	-134.88
-21.716	-174.66
-22.776	131.94
-22.45	62.605
-19.794	3.4716
-17.562	-38.386
-16.536	-71.364
-16.877	-100.02
-19.103	-123.88
-23.984	-131.05
-26.319	-93.144
-22.152	-80.827
-19.894	-89.014
-19.198	-97.37
-18.843	-100.46
-17.725	-102.96
-16.397	-112.17
-15.818	-127.04
-16.418	-144.06
-18.569	-158.68
-22.24	-159.11
-23.233	-137.01
-20.905	-134.71
-20.193	-149.28
-21.886	-166.22
-26.524	-169.58
-27.727	-127.7
-22.353	-127.62
-19.79	-156.68
-19.515	160.64
-20.148	103.84
-19.233	40.356
-16.994	-12.084
-15.264	-54.059
-14.688	-91.726
-15.541	-127.73
-18.034	-162.03
-22.418	166.06
-29.512	138.84
-39.644	147.84
-35.585	153.56
-29.465	102.12
-24.62	61.1
-21.471	32.192
-19.373	10.827
-17.778	-6.6016
-16.484	-23.39
-15.674	-41.573
-15.645	-60.877
-16.606	-80.037
-18.947	-97.105
-23.592	-103.3
-27.068	-62.208
-21.581	-44.516
-18.156	-58.619
-16.637	-79.44
-16.418	-103.07
-17.407	-128.48
-19.582	-154.49
-22.614	178.19
-25.666	142.35
-26.408	90.044
-23.588	38.512
-20.426	-3.739
-18.597	-42.998
-18.276	-81.194
-19.084	-119.26
-20.48	-159.91
-21.741	154.22
-22.125	105.96
-21.845	63.263
-21.566	30.608
-21.136	6.5354
-20.23	-15.558
-19.174	-41.887
-18.427	-74.741
-18.141	-114.54
-18.187	-160.62
-18.378	149.75
-18.851	100.52
-20.18	53.667
-23.327	7.1551
-30.472	-56.128
-29.524	169.63
-22.7	115.56
-19.7	80.69
-18.601	52.549
-18.546	30.565
-18.677	14.296
-18.344	-1.3253
-17.902	-22.343
-18.058	-50.208
-19.214	-85.272
-21.539	-130.84
-24.343	165.19
-25.006	88.068
-24.844	21.52
-27.276	-42.17
-30.907	-148.22
-23.676	117.21
-18.339	65.069
-15.263	20.089
-13.692	-24.628
-13.346	-71.653
-14.02	-123.12
-15.217	178.5
-15.887	113.77
-15.496	50.445
-14.946	-6.5925
-15.132	-60.525
-16.422	-117.92
-18.223	171.12
-17.444	88.551
-14.505	21.641
-12.313	-30.537
-11.282	-75.933
-11.301	-118.26
-12.307	-159.24
-14.311	160.09
-17.361	118.77
-21.461	75.554
-26.109	30.864
-29.011	-6.1728
-27.213	-33.204
-23.425	-66.348
-20.426	-104.32
-18.492	-144.76
-17.446	171.53
-17.186	122.69
-17.513	67.57
-17.956	7.745
-18.055	-51.59
-17.964	-106.04
-18.185	-155.81
-19.176	156.33
-21.419	106.5
-25.439	46.414
-28.977	-43.714
-26.679	-127.2
-25.272	179.41
-26.994	137.29
-36.014	100.06
-30.732	-115.22
-21.506	-149.54
-17.164	175.97
-14.977	141.78
-14.248	108.68
-14.592	76.225
-15.872	41.653
-18.152	-1.7792
-20.187	-67.531
-17.786	-141.24
-14.043	167.02
-11.48	126.27
-10.099	88.299
-9.8616	49.439
-10.851	7.7324
-12.881	-39.305
-14.813	-95.891
-14.616	-156.61
-12.911	152.57
-11.633	110.63
-11.629	73.355
-13.222	40.67
-16.551	15.249
-21.88	4.764
-26.467	34.197
-23.336	57.382
-20.735	51.99
-19.412	41.992
-18.294	31.054
-17.117	15.577
-16.343	-5.9133
-16.285	-32.008
-17.02	-61.601
-18.692	-94.702
-21.852	-132.14
-28.562	-177.78
-36.951	16.919
-25.101	-51.158
-20.693	-91.091
-18.387	-127.51
-17.336	-162.93
-17.452	162.23
-18.762	128.67
-21.223	96.469
-24.878	62.656
-29.784	16.751
-32.141	-56.759
-29.054	-110.69
-26.381	-138.59
-24.445	-156.15
-22.608	-169.65
-20.54	176.25
-18.432	158.04
-16.679	135.72
-15.339	111.14
-14.257	84.907
-13.436	56.438
-13.167	25.773
-13.821	-4.5836
-15.457	-30.047
-17.68	-46.108
-19.451	-49.459
-19.069	-46.862
-17.209	-54.426
-16.049	-72.424
-16.391	-91.993
-17.863	-105.19
-19.253	-107.58
-18.888	-105.21
-17.151	-111.93
-15.595	-129.85
-14.893	-155.75
-15.256	172.47
-16.796	136.1
-19.445	96.421
-22.866	54.403
-26.835	10.333
-32.314	-40.949
-37.065	-153.4
-28.076	128.41
-22.556	92.072
-19.177	64.912
-16.883	42.349
-15.243	21.844
-14.238	1.6771
-14.109	-17.988
-15.018	-33.985
-16.512	-41.393
-17.265	-39.72
-16.532	-38.833
-15.39	-46.174
-14.955	-60.157
-15.794	-76.534
-18.246	-90.021
-22.557	-89.993
-25.064	-54.876
-21.179	-35.166
-18.257	-40.225
-16.78	-49.624
-15.867	-58.314
-14.97	-67.509
-14.135	-79.627
-13.697	-94.966
-13.871	-111.77
-14.599	-127.78
-15.586	-141.45
-16.349	-152.89
-16.473	-165.35
-16.171	176.7
-15.99	152.7
-16.062	124.55
-16.206	92.93
-16.285	57.16
-16.346	16.649
-16.532	-27.428
-16.809	-71.805
-16.928	-113.64
-16.729	-152.64
-16.34	169.31
-16.179	129.63
-16.844	87.033
-18.675	41.931
-21.316	-7.4412
-23.477	-65.801
-23.576	-127.73
-22.83	177.77
-23.341	127.89
-26.229	71.983
-28.766	-20.482
-22.85	-100.8
-17.822	-147.76
-14.76	172.04
-13.328	133.64
-13.216	97.457
-14.024	63.709
-15.529	31.527
-17.836	1.0054
-21.15	-22.925
-24.143	-28.523
-23.347	-27.388
-21.039	-41.063
-19.317	-61.407
-18.338	-81.725
-17.866	-98.469
-17.328	-110.54
-16.211	-121.62
-14.809	-136.67
-13.781	-156.7
-13.598	179.76
-14.622	154.79
-17.431	131.84
-23.279	126.2
-23.411	176.56
-17.068	170.4
-13.687	143.42
-11.83	111.91
-10.82	78.144
-10.457	42.618
-10.811	6.2959
-11.985	-29.059
-14.056	-62.091
-17.364	-92.549
-23.461	-118.82
-38.008	-54.947
-24.026	-22.498
-20.015	-46.655
-18.695	-71.85
-18.747	-97.877
-20.073	-127.04
-23.15	-163.01
-28.187	140.98
-28.485	54.116
-24.417	0.8613
-22.084	-36.06
-21.671	-72.154
-23.455	-110.12
-27.196	-146.96
-30.591	-175.72
-28.855	170.53
-22.839	154.1
-16.878	130.33
-12.119	102.18
-8.7659	71.24
-6.8624	39.508
-6.2925	9.117
-6.8574	-18.699
-8.4989	-43.707
-11.618	-65.513
-18.172	-75.921
-20.605	2.2153
-12.101	-2.7858
-9.0246	-30.263
-8.3539	-57.911
-8.8861	-83.895
-10.277	-110.03
-12.877	-138.09
-17.892	-165.66
-27.381	-163.34
-24.924	-115.12
-20.708	-138.85
-18.453	-176.61
-16.661	142.29
-15.303	103.48
-14.602	70.339
-14.462	43.554
-14.655	21.684
-15.103	2.3732
-16.003	-15.812
-17.523	-32.037
-19.669	-45.766
-22.843	-56.558
-28.492	-54.124
-29.315	8.4204
-21.955	7.6096
-19.088	-20.257
-19.087	-49.423
-20.626	-75.499
-23.176	-99.718
-26.598	-124.22
-30.139	-155.61
-30.403	151.9
-25.524	98.84
-20.418	56.574
-16.801	16.469
-14.799	-23.758
-14.229	-63.772
-14.834	-105.01
-16.539	-153.37
-18.471	137.74
-16.663	54.713
-13.27	-7.2746
-11.37	-53.951
-10.918	-93.704
-11.945	-131.5
-15.662	-171.1
-32.3	131.31
-17.437	-65.787
-11.714	-106.8
-9.5325	-146.2
-9.0762	172.62
-10.012	127.37
-12.123	76.185
-14.534	17.376
-16.039	-45.813
-17.037	-107.58
-18.929	-174.81
-20.197	95.595
-17.172	12.338
-14.57	-45.296
-13.774	-93.785
-14.528	-144.69
-15.885	148.91
-14.402	69.941
-11.211	8.3742
-9.3144	-37.975
-8.873	-76.409
-9.5835	-110.83
-11.406	-144.49
-14.696	178.42
-20.095	127.28
-23.562	40.087
-20.771	-20.554
-19.158	-48.58
-18.272	-64.51
-17.377	-79.331
-16.998	-99.913
-18.056	-127.27
-21.262	-163
-26.458	132.78
-23.978	41.139
-19.444	-9.0733
-17.844	-49.729
-19.393	-91.215
-24.866	-145.01
-26.246	104.01
-19.406	48.227
-15.591	16.737
-13.764	-10.7
-13.75	-35.094
-15.286	-50.528
-16.761	-50.995
-16.077	-46.79
-14.273	-52.692
-12.861	-67.608
-12.314	-87.573
-12.803	-109.24
-14.263	-128.47
-16.035	-141.29
-16.914	-149.59
-16.595	-162.61
-16.034	173.91
-16.238	139.08
-18.127	91.871
-21.737	24.215
-21.505	-65.707
-17.51	-128.1
-14.611	-173.28
-13.133	145.01
-13.145	102.22
-14.621	55.391
-16.786	-2.7471
-16.638	-74.248
-13.814	-135.9
-11.768	173.77
-11.906	128.49
-14.558	87.654
-20.777	46.162
-30.911	-94.597
-18.854	-173.07
-15.242	143.46
-15.64	97.881
-19.396	40.112
-20.444	-55.478
-14.877	-120.41
-11.309	-162.7
-10.368	158.86
-12.432	126.14
-17.929	112.58
-20.672	159.03
-14.395	164.64
-11.169	139.05
-10.688	103.96
-12.667	63.423
-16.565	10.977
-18.591	-67.509
-16.179	-133.13
-15.557	-176.65
-18.631	156.78
-23.987	-178.06
-18.019	-147.33
-13.32	-161.79
-11.014	174.51
-10.485	147.76
-11.535	120.51
-14.061	93.36
-18.318	62.755
-24.718	9.2392
-23.69	-81.092
-18.584	-123.01
-15.473	-149.83
-13.731	-175.58
-13.317	156.08
-14.588	124.64
-17.967	89.897
-23.896	40.877
-25.838	-52.892
-20.705	-108.01
-17.687	-139.5
-16.354	-165.24
-16.028	171.95
-16.208	149.49
-16.852	123.13
-18.405	87.473
-21.385	32.104
-22.457	-56.364
-18.619	-130.48
-15.433	177.6
-13.345	131.84
-12.02	86.871
-11.395	41.83
-11.437	-2.1964
-12.006	-44.373
-12.959	-85.02
-14.244	-124.52
-15.769	-161.48
-17.06	167.27
-17.234	141.59
-16.137	115.03
-14.68	82.488
-13.767	42.369
-13.847	-6.7212
-14.409	-66.83
-13.641	-132.8
-11.501	170.19
-9.6515	123.97
-8.8032	83.602
-9.1443	45.55
-10.943	6.1485
-15.086	-43.592
-20.202	-143.02
-15.169	125.09
-12.641	77.848
-12.833	43.414
-15.055	15.075
-20.479	-7.9072
-33.3	62.295
-19.893	88.809
-16.356	65.443
-15.849	44.05
-16.694	27.325
-18.054	14.339
-19.467	0.10053
-21.383	-24.847
-24.157	-75.048
-22.722	-151.9
-18.216	153.75
-15.611	112.37
-15.308	75.131
-16.956	41.587
-20.202	10.09
-25.083	-23.839
-31.374	-63.617
-33.92	-75.638
-25.807	-82.779
-19.296	-110.43
-15.306	-138.29
-12.873	-165.26
-11.814	167.01
-12.486	139.57
-15.064	117.75
-19.065	107.58
