Tektronix:  IConnect
Version 6.1.0

File Created: April 06, 2017 at 12:33PM
Created By: Tek_Local_Admin

Format: Waveform
Type: Time Domain

== Begin Header ==

Type: Impedance

Samples: 16000
Step Size: 313f
First Step: 0
Reference Impedance: 50

== End Header ==

Data:
50
49.976
49.949
49.953
49.982
49.977
49.954
49.907
49.898
49.922
49.963
50.007
50.023
50.037
50.029
50.015
49.994
49.981
49.986
50
50.002
49.983
49.946
49.924
49.923
49.951
49.983
50.018
50.025
50.015
49.991
49.98
49.992
50
50.016
50.032
50.047
50.043
50.016
50.006
50.009
50.022
50.019
50.005
49.985
49.968
49.964
49.975
49.988
49.993
49.994
49.995
49.997
50.001
50.019
50.053
50.085
50.087
50.073
50.047
50.039
50.03
50.03
50.027
50.033
50.046
50.061
50.062
50.055
50.055
50.075
50.093
50.094
50.085
50.08
50.082
50.069
50.052
50.037
50.044
50.06
50.073
50.071
50.049
50.019
49.991
49.98
49.985
49.995
50.007
50.028
50.05
50.069
50.067
50.07
50.07
50.078
50.065
50.043
50.022
50.027
50.039
50.044
50.027
50.014
50.003
50.01
50.019
50.039
50.054
50.081
50.103
50.119
50.121
50.112
50.1
50.083
50.067
50.045
50.023
50.01
50.019
50.031
50.031
50.02
50.008
50.006
49.998
49.999
49.995
49.996
49.994
50.007
50.021
50.026
50.019
50.018
50.027
50.036
50.032
50.025
50.022
50.037
50.054
50.063
50.051
50.026
50.009
49.999
50.004
50.012
50.03
50.038
50.045
50.037
50.039
50.031
50.035
50.038
50.052
50.063
50.067
50.068
50.056
50.045
50.033
50.031
50.028
50.019
50.022
50.038
50.06
50.061
50.047
50.025
50.005
49.989
49.999
50.026
50.048
50.047
50.026
50.018
50.023
50.04
50.047
50.046
50.043
50.049
50.059
50.061
50.049
50.03
50.028
50.047
50.085
50.115
50.13
50.107
50.078
50.048
50.036
50.036
50.044
50.07
50.07
50.056
50.024
50.033
50.065
50.098
50.101
50.095
50.09
50.097
50.104
50.122
50.129
50.123
50.107
50.096
50.091
50.082
50.065
50.045
50.04
50.032
50.034
50.017
50.014
50.012
50.052
50.085
50.099
50.071
50.046
50.035
50.037
50.036
50.044
50.041
50.032
50.003
49.989
49.985
50
50.016
50.037
50.042
50.05
50.05
50.057
50.058
50.056
50.045
50.035
50.029
50.03
50.035
50.045
50.056
50.056
50.053
50.049
50.061
50.073
50.084
50.076
50.054
50.021
50.001
50.01
50.043
50.072
50.084
50.086
50.082
50.078
50.069
50.071
50.076
50.077
50.06
50.039
50.025
50.03
50.041
50.046
50.036
50.023
50.016
50.012
50.019
50.033
50.059
50.081
50.091
50.082
50.063
50.052
50.065
50.083
50.103
50.106
50.11
50.102
50.094
50.082
50.073
50.067
50.07
50.092
50.137
50.183
50.201
50.182
50.142
50.11
50.087
50.082
50.087
50.107
50.119
50.13
50.129
50.116
50.079
50.035
50.013
50.019
50.034
50.045
50.05
50.076
50.095
50.092
50.068
50.04
50.036
50.032
50.034
50.036
50.05
50.075
50.107
50.142
50.179
50.184
50.163
50.12
50.097
50.094
50.097
50.1
50.115
50.14
50.154
50.15
50.126
50.105
50.072
50.06
50.055
50.077
50.096
50.108
50.108
50.096
50.082
50.074
50.079
50.082
50.066
50.042
50.025
50.036
50.055
50.082
50.088
50.093
50.075
50.064
50.06
50.086
50.117
50.127
50.108
50.083
50.066
50.067
50.064
50.059
50.049
50.047
50.048
50.051
50.056
50.086
50.123
50.16
50.162
50.143
50.124
50.12
50.135
50.144
50.136
50.1
50.053
50.021
50.021
50.045
50.067
50.084
50.103
50.131
50.145
50.135
50.117
50.121
50.146
50.157
50.149
50.131
50.136
50.151
50.176
50.177
50.165
50.143
50.137
50.147
50.155
50.157
50.146
50.141
50.14
50.146
50.148
50.156
50.168
50.186
50.189
50.183
50.166
50.158
50.154
50.15
50.126
50.083
50.043
50.015
50.012
50.012
50.027
50.041
50.057
50.071
50.084
50.102
50.114
50.117
50.125
50.129
50.135
50.119
50.106
50.088
50.072
50.059
50.056
50.084
50.118
50.158
50.168
50.165
50.143
50.118
50.089
50.074
50.072
50.076
50.086
50.086
50.083
50.064
50.055
50.068
50.093
50.114
50.111
50.102
50.103
50.109
50.122
50.117
50.111
50.103
50.119
50.139
50.152
50.148
50.131
50.113
50.096
50.084
50.068
50.064
50.069
50.094
50.107
50.114
50.101
50.108
50.12
50.136
50.132
50.117
50.097
50.08
50.067
50.057
50.059
50.086
50.14
50.197
50.224
50.202
50.174
50.152
50.146
50.114
50.077
50.049
50.045
50.058
50.068
50.091
50.113
50.133
50.133
50.122
50.122
50.125
50.131
50.115
50.105
50.098
50.103
50.099
50.086
50.088
50.098
50.11
50.084
50.05
50.025
50.033
50.064
50.097
50.128
50.146
50.149
50.141
50.128
50.128
50.115
50.111
50.1
50.113
50.119
50.12
50.111
50.109
50.119
50.135
50.131
50.112
50.089
50.08
50.084
50.076
50.073
50.056
50.067
50.062
50.066
50.048
50.038
50.032
50.045
50.067
50.092
50.117
50.146
50.179
50.182
50.155
50.099
50.073
50.074
50.095
50.092
50.073
50.071
50.087
50.105
50.09
50.066
50.045
50.044
50.05
50.057
50.049
50.033
50.014
50.002
50.001
50.003
50.028
50.049
50.069
50.062
50.055
50.057
50.063
50.065
50.048
50.044
50.048
50.05
50.037
50.018
50.026
50.041
50.057
50.055
50.053
50.063
50.076
50.083
50.079
50.068
50.057
50.038
50.026
50.022
50.036
50.051
50.049
50.04
50.029
50.046
50.068
50.096
50.099
50.093
50.085
50.089
50.092
50.084
50.07
50.063
50.063
50.087
50.112
50.132
50.117
50.092
50.07
50.06
50.062
50.073
50.09
50.091
50.077
50.055
50.05
50.064
50.098
50.13
50.144
50.141
50.129
50.126
50.111
50.095
50.066
50.043
50.032
50.035
50.05
50.047
50.046
50.061
50.094
50.127
50.135
50.124
50.105
50.092
50.092
50.102
50.103
50.104
50.093
50.094
50.084
50.083
50.072
50.074
50.078
50.088
50.091
50.091
50.089
50.087
50.093
50.103
50.107
50.093
50.072
50.062
50.069
50.083
50.09
50.088
50.068
50.055
50.059
50.094
50.124
50.139
50.135
50.123
50.115
50.122
50.156
50.185
50.19
50.169
50.153
50.159
50.168
50.163
50.136
50.102
50.081
50.07
50.071
50.068
50.067
50.05
50.045
50.053
50.091
50.112
50.107
50.075
50.053
50.041
50.044
50.043
50.054
50.071
50.094
50.103
50.109
50.117
50.141
50.144
50.131
50.096
50.08
50.073
50.091
50.103
50.112
50.105
50.097
50.08
50.056
50.023
49.999
49.997
50.017
50.046
50.061
50.069
50.07
50.089
50.114
50.132
50.117
50.088
50.068
50.075
50.09
50.097
50.11
50.124
50.14
50.132
50.125
50.113
50.107
50.105
50.102
50.109
50.107
50.124
50.14
50.161
50.153
50.128
50.101
50.093
50.108
50.127
50.125
50.106
50.083
50.08
50.083
50.076
50.064
50.048
50.057
50.075
50.096
50.103
50.1
50.109
50.121
50.133
50.119
50.096
50.074
50.076
50.09
50.11
50.119
50.125
50.137
50.141
50.139
50.124
50.122
50.129
50.131
50.136
50.13
50.125
50.1
50.071
50.046
50.038
50.044
50.063
50.073
50.079
50.079
50.078
50.078
50.056
50.041
50.033
50.044
50.066
50.084
50.107
50.11
50.099
50.086
50.09
50.11
50.107
50.081
50.057
50.051
50.073
50.076
50.069
50.043
50.041
50.048
50.068
50.076
50.081
50.071
50.061
50.061
50.083
50.105
50.114
50.096
50.076
50.066
50.085
50.114
50.124
50.108
50.072
50.054
50.071
50.108
50.132
50.115
50.079
50.046
50.041
50.052
50.071
50.078
50.08
50.074
50.076
50.079
50.091
50.106
50.125
50.124
50.109
50.08
50.07
50.076
50.106
50.136
50.154
50.158
50.139
50.115
50.082
50.074
50.071
50.076
50.064
50.06
50.044
50.04
50.048
50.082
50.105
50.094
50.073
50.056
50.053
50.05
50.048
50.056
50.065
50.087
50.101
50.116
50.123
50.137
50.139
50.123
50.096
50.07
50.06
50.058
50.07
50.077
50.094
50.096
50.091
50.065
50.051
50.066
50.089
50.122
50.132
50.137
50.122
50.109
50.101
50.104
50.112
50.128
50.133
50.134
50.136
50.15
50.165
50.158
50.147
50.136
50.139
50.134
50.126
50.126
50.132
50.142
50.121
50.099
50.068
50.064
50.056
50.062
50.071
50.089
50.087
50.07
50.037
50.015
50.001
50.013
50.029
50.038
50.028
50.018
50.016
50.027
50.042
50.052
50.05
50.006
49.954
49.913
49.926
49.949
49.964
49.951
49.934
49.92
49.922
49.932
49.937
49.939
49.933
49.933
49.933
49.925
49.894
49.839
49.798
49.795
49.813
49.822
49.814
49.811
49.82
49.834
49.845
49.855
49.859
49.868
49.876
49.885
49.88
49.855
49.826
49.796
49.784
49.776
49.786
49.801
49.817
49.816
49.813
49.806
49.806
49.793
49.801
49.818
49.852
49.862
49.863
49.853
49.84
49.827
49.802
49.783
49.759
49.758
49.778
49.83
49.895
49.936
49.951
49.943
49.944
49.944
49.959
49.962
49.965
49.947
49.944
49.954
49.983
50.009
50.032
50.05
50.067
50.068
50.069
50.089
50.119
50.141
50.139
50.135
50.136
50.142
50.163
50.191
50.217
50.216
50.211
50.222
50.241
50.235
50.198
50.164
50.157
50.167
50.187
50.194
50.213
50.209
50.211
50.183
50.165
50.133
50.123
50.127
50.162
50.19
50.192
50.165
50.146
50.162
50.175
50.184
50.173
50.173
50.168
50.157
50.147
50.145
50.144
50.141
50.139
50.155
50.166
50.16
50.132
50.125
50.126
50.151
50.143
50.142
50.123
50.119
50.113
50.117
50.118
50.107
50.091
50.081
50.083
50.099
50.125
50.154
50.18
50.188
50.181
50.154
50.138
50.146
50.179
50.218
50.24
50.247
50.254
50.256
50.247
50.197
50.153
50.122
50.131
50.131
50.143
50.147
50.144
50.114
50.094
50.109
50.139
50.151
50.142
50.131
50.123
50.121
50.129
50.145
50.169
50.173
50.169
50.131
50.105
50.081
50.101
50.126
50.145
50.14
50.122
50.119
50.128
50.15
50.154
50.142
50.108
50.083
50.07
50.073
50.08
50.092
50.11
50.122
50.12
50.112
50.116
50.122
50.107
50.065
50.017
49.993
49.98
49.984
49.993
50.015
50.021
49.996
49.963
49.93
49.92
49.904
49.901
49.902
49.898
49.898
49.883
49.891
49.897
49.912
49.914
49.907
49.912
49.933
49.97
49.993
50.008
49.995
49.978
49.953
49.959
49.974
49.998
49.991
49.989
49.995
50.023
50.024
50.003
49.971
49.971
49.987
50.012
50.018
50.019
50.025
50.038
50.06
50.058
50.062
50.051
50.065
50.083
50.112
50.122
50.11
50.086
50.066
50.066
50.079
50.101
50.105
50.094
50.086
50.107
50.148
50.17
50.182
50.178
50.179
50.168
50.165
50.166
50.173
50.186
50.197
50.201
50.19
50.189
50.215
50.25
50.278
50.273
50.255
50.219
50.187
50.165
50.161
50.177
50.197
50.23
50.248
50.245
50.208
50.181
50.17
50.188
50.199
50.224
50.244
50.263
50.261
50.249
50.237
50.226
50.216
50.195
50.175
50.161
50.168
50.171
50.175
50.166
50.169
50.165
50.164
50.149
50.15
50.164
50.212
50.251
50.28
50.27
50.252
50.217
50.186
50.153
50.14
50.157
50.207
50.251
50.262
50.228
50.191
50.161
50.162
50.166
50.176
50.173
50.166
50.151
50.144
50.146
50.161
50.19
50.226
50.264
50.281
50.278
50.252
50.228
50.214
50.225
50.239
50.245
50.255
50.271
50.29
50.295
50.288
50.273
50.254
50.227
50.214
50.221
50.249
50.268
50.267
50.245
50.215
50.182
50.17
50.177
50.205
50.221
50.217
50.194
50.18
50.166
50.159
50.153
50.161
50.158
50.149
50.135
50.129
50.111
50.107
50.111
50.125
50.119
50.113
50.126
50.141
50.143
50.126
50.119
50.119
50.116
50.101
50.085
50.082
50.092
50.102
50.103
50.1
50.106
50.111
50.118
50.126
50.149
50.17
50.194
50.191
50.19
50.178
50.191
50.192
50.211
50.217
50.24
50.235
50.223
50.187
50.149
50.12
50.113
50.135
50.157
50.16
50.144
50.13
50.132
50.148
50.167
50.175
50.156
50.123
50.087
50.07
50.061
50.064
50.075
50.085
50.078
50.04
49.992
49.952
49.944
49.944
49.938
49.894
49.845
49.803
49.784
49.785
49.783
49.786
49.77
49.761
49.745
49.735
49.712
49.688
49.643
49.598
49.553
49.527
49.497
49.458
49.411
49.371
49.336
49.304
49.289
49.287
49.275
49.229
49.181
49.145
49.137
49.112
49.093
49.064
49.044
49.01
48.976
48.945
48.917
48.898
48.869
48.849
48.807
48.762
48.703
48.652
48.605
48.568
48.546
48.539
48.531
48.506
48.451
48.391
48.342
48.325
48.309
48.29
48.25
48.219
48.185
48.159
48.11
48.05
47.977
47.922
47.876
47.839
47.799
47.784
47.771
47.77
47.745
47.734
47.703
47.67
47.63
47.596
47.578
47.564
47.568
47.58
47.598
47.608
47.61
47.593
47.573
47.546
47.528
47.521
47.53
47.562
47.586
47.6
47.6
47.614
47.634
47.655
47.664
47.67
47.682
47.698
47.711
47.725
47.757
47.824
47.887
47.928
47.931
47.929
47.937
47.958
47.977
47.993
48.01
48.052
48.1
48.156
48.19
48.237
48.289
48.353
48.397
48.417
48.435
48.464
48.515
48.569
48.622
48.672
48.714
48.751
48.787
48.832
48.881
48.923
48.954
48.986
49.021
49.063
49.095
49.145
49.197
49.255
49.287
49.312
49.349
49.402
49.462
49.513
49.561
49.608
49.657
49.711
49.775
49.835
49.878
49.898
49.911
49.937
49.974
50.025
50.073
50.127
50.185
50.248
50.316
50.383
50.442
50.483
50.508
50.526
50.541
50.581
50.646
50.724
50.788
50.838
50.88
50.895
50.892
50.883
50.898
50.915
50.937
50.954
50.973
50.986
50.999
51.022
51.044
51.077
51.103
51.13
51.141
51.133
51.114
51.1
51.103
51.12
51.134
51.145
51.136
51.113
51.086
51.063
51.044
51.021
50.983
50.939
50.891
50.856
50.823
50.805
50.779
50.761
50.729
50.702
50.668
50.627
50.563
50.472
50.376
50.284
50.214
50.141
50.071
49.986
49.91
49.848
49.799
49.747
49.659
49.538
49.392
49.247
49.112
48.999
48.892
48.792
48.672
48.551
48.418
48.293
48.175
48.057
47.93
47.775
47.62
47.463
47.314
47.158
47.004
46.864
46.727
46.586
46.416
46.235
46.04
45.863
45.691
45.545
45.374
45.195
44.981
44.778
44.56
44.354
44.13
43.921
43.704
43.511
43.309
43.106
42.877
42.635
42.381
42.14
41.92
41.725
41.52
41.29
41.02
40.719
40.409
40.113
39.841
39.601
39.356
39.115
38.835
38.551
38.242
37.95
37.641
37.341
37.044
36.789
36.526
36.248
35.941
35.656
35.352
35.024
34.668
34.345
34.033
33.73
33.395
33.08
32.768
32.479
32.187
31.904
31.609
31.292
30.944
30.6
30.267
29.958
29.669
29.409
29.164
28.904
28.616
28.32
28.024
27.741
27.45
27.168
26.919
26.695
26.477
26.226
25.971
25.723
25.5
25.281
25.078
24.872
24.673
24.462
24.278
24.109
23.952
23.777
23.605
23.444
23.301
23.16
23.018
22.869
22.725
22.588
22.473
22.369
22.274
22.185
22.101
22.023
21.932
21.856
21.785
21.741
21.691
21.649
21.606
21.561
21.54
21.527
21.532
21.519
21.506
21.496
21.512
21.544
21.589
21.633
21.686
21.739
21.786
21.825
21.863
21.925
22.011
22.112
22.189
22.261
22.319
22.412
22.508
22.642
22.794
22.959
23.107
23.213
23.31
23.417
23.564
23.734
23.905
24.07
24.232
24.413
24.577
24.748
24.917
25.129
25.366
25.59
25.805
25.971
26.155
26.322
26.525
26.738
26.976
27.194
27.366
27.49
27.637
27.827
28.122
28.455
28.831
29.12
29.376
29.597
29.871
30.137
30.372
30.597
30.857
31.176
31.463
31.72
31.99
32.312
32.634
32.828
32.992
33.181
33.495
33.789
34.054
34.281
34.546
34.851
35.19
35.534
35.833
36.077
36.276
36.468
36.659
36.845
37.062
37.271
37.499
37.711
38.029
38.382
38.738
38.954
39.114
39.282
39.527
39.805
40.069
40.275
40.467
40.606
40.775
40.903
41.093
41.27
41.458
41.586
41.687
41.776
41.912
42.051
42.192
42.261
42.329
42.406
42.525
42.67
42.807
42.916
42.984
43.01
43.043
43.063
43.11
43.152
43.214
43.262
43.277
43.256
43.24
43.242
43.244
43.221
43.192
43.181
43.167
43.132
43.058
42.965
42.887
42.844
42.814
42.761
42.666
42.566
42.467
42.375
42.268
42.167
42.065
41.965
41.852
41.741
41.637
41.529
41.416
41.285
41.158
41.019
40.879
40.735
40.599
40.455
40.301
40.139
39.99
39.858
39.728
39.603
39.47
39.33
39.178
39.035
38.907
38.786
38.657
38.535
38.406
38.27
38.126
37.988
37.869
37.749
37.631
37.513
37.407
37.311
37.207
37.091
36.969
36.861
36.765
36.676
36.597
36.531
36.463
36.388
36.306
36.233
36.153
36.071
35.987
35.926
35.894
35.877
35.856
35.812
35.758
35.711
35.689
35.68
35.671
35.649
35.637
35.627
35.621
35.62
35.633
35.665
35.692
35.721
35.754
35.797
35.833
35.852
35.862
35.885
35.919
35.955
35.983
36.018
36.07
36.124
36.169
36.193
36.218
36.253
36.315
36.382
36.449
36.497
36.558
36.632
36.711
36.775
36.819
36.868
36.916
36.966
36.998
37.015
37.024
37.048
37.097
37.155
37.213
37.256
37.291
37.312
37.333
37.348
37.366
37.374
37.389
37.393
37.41
37.422
37.448
37.463
37.459
37.441
37.411
37.4
37.391
37.402
37.405
37.412
37.396
37.374
37.351
37.338
37.316
37.28
37.238
37.207
37.18
37.151
37.107
37.058
36.999
36.962
36.93
36.911
36.869
36.829
36.784
36.756
36.712
36.671
36.618
36.58
36.536
36.499
36.462
36.432
36.395
36.35
36.302
36.264
36.227
36.2
36.176
36.168
36.149
36.115
36.071
36.034
36.017
36.003
35.991
35.977
35.966
35.975
35.978
35.98
35.962
35.947
35.938
35.936
35.946
35.967
35.988
35.996
35.986
35.974
35.977
35.998
36.031
36.061
36.088
36.11
36.134
36.16
36.196
36.239
36.29
36.334
36.374
36.406
36.436
36.466
36.502
36.536
36.572
36.616
36.68
36.747
36.809
36.854
36.89
36.914
36.937
36.982
37.053
37.143
37.212
37.265
37.3
37.34
37.385
37.428
37.466
37.509
37.574
37.652
37.722
37.759
37.785
37.818
37.874
37.939
37.992
38.038
38.076
38.135
38.2
38.262
38.312
38.354
38.391
38.42
38.463
38.527
38.607
38.675
38.729
38.775
38.814
38.853
38.894
38.946
39.007
39.048
39.069
39.077
39.113
39.171
39.243
39.302
39.347
39.376
39.413
39.453
39.505
39.54
39.566
39.571
39.581
39.593
39.599
39.593
39.588
39.606
39.631
39.652
39.656
39.654
39.642
39.626
39.611
39.604
39.6
39.607
39.601
39.588
39.555
39.542
39.549
39.567
39.572
39.555
39.529
39.493
39.459
39.433
39.411
39.379
39.337
39.295
39.27
39.253
39.249
39.239
39.226
39.185
39.122
39.043
38.978
38.932
38.894
38.847
38.798
38.764
38.744
38.73
38.7
38.676
38.651
38.624
38.573
38.51
38.447
38.394
38.357
38.328
38.304
38.276
38.248
38.231
38.212
38.188
38.155
38.129
38.112
38.102
38.091
38.07
38.033
37.988
37.945
37.917
37.894
37.891
37.89
37.893
37.885
37.891
37.908
37.917
37.899
37.858
37.831
37.824
37.838
37.843
37.843
37.835
37.838
37.83
37.819
37.805
37.815
37.823
37.827
37.82
37.832
37.863
37.902
37.92
37.911
37.897
37.897
37.926
37.966
38.014
38.047
38.077
38.088
38.103
38.107
38.123
38.132
38.151
38.162
38.173
38.182
38.196
38.225
38.25
38.273
38.284
38.306
38.341
38.381
38.412
38.419
38.414
38.41
38.425
38.466
38.514
38.556
38.588
38.614
38.636
38.633
38.635
38.642
38.674
38.702
38.727
38.746
38.766
38.788
38.819
38.847
38.876
38.894
38.925
38.953
38.984
39.006
39.031
39.057
39.072
39.086
39.106
39.154
39.207
39.252
39.275
39.286
39.297
39.311
39.337
39.368
39.394
39.412
39.421
39.438
39.45
39.467
39.473
39.485
39.484
39.49
39.482
39.491
39.489
39.498
39.495
39.504
39.521
39.541
39.555
39.554
39.571
39.6
39.629
39.635
39.618
39.607
39.603
39.611
39.615
39.62
39.608
39.596
39.577
39.6
39.634
39.674
39.678
39.665
39.642
39.616
39.604
39.61
39.629
39.64
39.632
39.618
39.611
39.599
39.586
39.575
39.592
39.611
39.624
39.61
39.602
39.597
39.609
39.6
39.586
39.56
39.557
39.552
39.541
39.52
39.516
39.533
39.554
39.557
39.556
39.55
39.554
39.542
39.528
39.515
39.522
39.531
39.535
39.526
39.516
39.501
39.489
39.482
39.488
39.499
39.511
39.52
39.526
39.537
39.541
39.537
39.519
39.499
39.501
39.517
39.545
39.547
39.54
39.518
39.501
39.485
39.469
39.455
39.45
39.452
39.455
39.447
39.448
39.446
39.448
39.436
39.433
39.441
39.461
39.465
39.448
39.427
39.419
39.43
39.437
39.44
39.429
39.417
39.399
39.384
39.375
39.376
39.392
39.408
39.418
39.408
39.396
39.394
39.411
39.439
39.464
39.485
39.494
39.494
39.482
39.467
39.459
39.464
39.48
39.482
39.47
39.454
39.454
39.446
39.431
39.404
39.391
39.383
39.38
39.383
39.394
39.404
39.407
39.405
39.403
39.406
39.414
39.422
39.42
39.413
39.404
39.405
39.407
39.412
39.415
39.409
39.407
39.398
39.397
39.39
39.386
39.392
39.404
39.412
39.412
39.414
39.424
39.445
39.464
39.49
39.506
39.518
39.507
39.481
39.458
39.451
39.472
39.497
39.521
39.535
39.55
39.576
39.6
39.606
39.595
39.587
39.6
39.613
39.624
39.627
39.631
39.627
39.619
39.621
39.626
39.63
39.638
39.668
39.712
39.747
39.756
39.741
39.713
39.697
39.702
39.728
39.755
39.777
39.794
39.806
39.81
39.806
39.814
39.837
39.869
39.891
39.898
39.89
39.871
39.861
39.866
39.888
39.892
39.886
39.862
39.855
39.856
39.882
39.91
39.942
39.963
39.967
39.95
39.92
39.899
39.91
39.944
39.982
40.005
39.999
39.975
39.947
39.931
39.94
39.955
39.971
39.974
39.968
39.955
39.935
39.924
39.92
39.927
39.946
39.96
39.961
39.944
39.922
39.898
39.882
39.878
39.885
39.888
39.888
39.885
39.882
39.88
39.879
39.891
39.9
39.914
39.924
39.944
39.954
39.944
39.925
39.905
39.906
39.895
39.878
39.857
39.858
39.881
39.902
39.906
39.894
39.884
39.879
39.858
39.822
39.788
39.78
39.806
39.841
39.877
39.879
39.866
39.836
39.831
39.837
39.85
39.842
39.821
39.789
39.766
39.739
39.716
39.694
39.688
39.682
39.67
39.649
39.62
39.597
39.588
39.602
39.615
39.618
39.598
39.584
39.561
39.544
39.516
39.489
39.469
39.449
39.439
39.432
39.429
39.429
39.419
39.408
39.388
39.378
39.362
39.345
39.314
39.286
39.258
39.247
39.248
39.252
39.246
39.223
39.201
39.181
39.167
39.154
39.141
39.139
39.133
39.128
39.106
39.084
39.067
39.068
39.081
39.088
39.075
39.049
39.044
39.061
39.084
39.089
39.086
39.092
39.104
39.108
39.101
39.088
39.085
39.084
39.091
39.098
39.108
39.114
39.117
39.124
39.136
39.159
39.173
39.178
39.178
39.184
39.202
39.214
39.235
39.247
39.267
39.279
39.312
39.347
39.385
39.4
39.414
39.429
39.445
39.45
39.459
39.486
39.521
39.551
39.563
39.574
39.581
39.589
39.593
39.609
39.642
39.682
39.704
39.703
39.699
39.715
39.749
39.78
39.798
39.806
39.814
39.829
39.834
39.841
39.855
39.897
39.934
39.945
39.919
39.901
39.911
39.95
39.987
40.009
40.02
40.025
40.028
40.018
40.005
39.992
39.984
39.963
39.941
39.92
39.921
39.934
39.948
39.945
39.932
39.918
39.915
39.915
39.918
39.904
39.876
39.846
39.834
39.84
39.858
39.876
39.891
39.886
39.86
39.826
39.793
39.763
39.721
39.692
39.68
39.699
39.714
39.719
39.704
39.7
39.702
39.715
39.706
39.682
39.649
39.628
39.62
39.614
39.611
39.605
39.594
39.571
39.548
39.536
39.533
39.534
39.534
39.542
39.55
39.56
39.562
39.556
39.528
39.486
39.458
39.458
39.476
39.488
39.503
39.528
39.562
39.582
39.582
39.579
39.583
39.605
39.618
39.622
39.603
39.592
39.589
39.611
39.628
39.652
39.662
39.671
39.662
39.657
39.662
39.683
39.708
39.728
39.746
39.756
39.763
39.769
39.784
39.796
39.799
39.803
39.819
39.843
39.867
39.894
39.929
39.953
39.974
39.982
40.003
40.016
40.025
40.026
40.031
40.054
40.08
40.104
40.116
40.13
40.14
40.147
40.153
40.155
40.161
40.152
40.163
40.173
40.199
40.21
40.216
40.225
40.24
40.27
40.288
40.297
40.283
40.27
40.262
40.257
40.259
40.261
40.277
40.291
40.309
40.317
40.332
40.337
40.335
40.314
40.302
40.3
40.31
40.316
40.303
40.291
40.278
40.298
40.317
40.33
40.329
40.328
40.338
40.337
40.33
40.318
40.314
40.307
40.294
40.269
40.252
40.253
40.285
40.324
40.348
40.35
40.344
40.349
40.347
40.326
40.295
40.281
40.297
40.303
40.291
40.252
40.235
40.232
40.257
40.274
40.293
40.3
40.309
40.321
40.326
40.329
40.32
40.317
40.314
40.312
40.306
40.301
40.3
40.314
40.329
40.353
40.366
40.381
40.385
40.387
40.382
40.38
40.383
40.386
40.387
40.381
40.374
40.373
40.381
40.392
40.4
40.407
40.425
40.442
40.459
40.463
40.465
40.465
40.465
40.467
40.471
40.487
40.519
40.545
40.568
40.58
40.603
40.623
40.634
40.639
40.636
40.634
40.628
40.634
40.651
40.667
40.669
40.669
40.685
40.713
40.746
40.771
40.787
40.786
40.772
40.765
40.774
40.787
40.8
40.816
40.847
40.878
40.895
40.898
40.893
40.892
40.891
40.891
40.879
40.867
40.861
40.871
40.884
40.898
40.902
40.901
40.89
40.882
40.879
40.894
40.915
40.932
40.921
40.897
40.883
40.897
40.93
40.94
40.939
40.919
40.917
40.914
40.911
40.898
40.874
40.862
40.868
40.896
40.917
40.908
40.882
40.852
40.847
40.848
40.85
40.851
40.854
40.86
40.855
40.841
40.836
40.847
40.87
40.872
40.863
40.853
40.852
40.84
40.819
40.797
40.785
40.777
40.773
40.785
40.798
40.82
40.812
40.82
40.824
40.857
40.863
40.867
40.846
40.844
40.837
40.834
40.824
40.812
40.809
40.808
40.822
40.845
40.866
40.87
40.839
40.799
40.782
40.805
40.851
40.879
40.878
40.854
40.838
40.841
40.861
40.867
40.85
40.818
40.803
40.811
40.841
40.877
40.905
40.914
40.905
40.896
40.887
40.878
40.873
40.884
40.91
40.927
40.928
40.927
40.919
40.9
40.873
40.863
40.879
40.898
40.912
40.901
40.878
40.857
40.859
40.881
40.904
40.917
40.919
40.923
40.918
40.912
40.898
40.892
40.888
40.896
40.912
40.938
40.946
40.938
40.914
40.911
40.925
40.946
40.945
40.931
40.912
40.912
40.923
40.948
40.961
40.971
40.966
40.965
40.945
40.929
40.927
40.958
40.986
41.007
41.021
41.044
41.061
41.062
41.049
41.034
41.044
41.066
41.093
41.094
41.092
41.1
41.118
41.131
41.122
41.117
41.124
41.146
41.173
41.193
41.207
41.205
41.198
41.197
41.22
41.242
41.263
41.271
41.276
41.28
41.291
41.313
41.33
41.339
41.344
41.347
41.354
41.355
41.353
41.348
41.354
41.376
41.403
41.43
41.447
41.459
41.467
41.479
41.485
41.485
41.476
41.476
41.474
41.472
41.462
41.461
41.478
41.51
41.541
41.545
41.529
41.514
41.526
41.544
41.556
41.548
41.542
41.544
41.566
41.591
41.606
41.595
41.578
41.564
41.562
41.553
41.534
41.519
41.519
41.545
41.578
41.609
41.61
41.602
41.585
41.575
41.555
41.55
41.552
41.569
41.575
41.587
41.581
41.561
41.527
41.51
41.506
41.505
41.497
41.5
41.507
41.519
41.529
41.546
41.545
41.534
41.515
41.527
41.549
41.564
41.547
41.521
41.496
41.489
41.488
41.491
41.493
41.5
41.508
41.51
41.495
41.483
41.483
41.494
41.512
41.515
41.523
41.498
41.473
41.434
41.429
41.435
41.451
41.455
41.453
41.458
41.461
41.47
41.454
41.438
41.413
41.418
41.44
41.461
41.457
41.43
41.406
41.387
41.377
41.372
41.388
41.413
41.44
41.446
41.437
41.412
41.392
41.392
41.402
41.405
41.373
41.342
41.326
41.341
41.355
41.365
41.362
41.357
41.349
41.343
41.344
41.343
41.338
41.324
41.303
41.287
41.272
41.278
41.277
41.279
41.268
41.265
41.267
41.263
41.258
41.226
41.192
41.156
41.154
41.167
41.185
41.184
41.167
41.141
41.122
41.109
41.103
41.089
41.081
41.074
41.074
41.062
41.041
41.016
40.999
40.985
40.98
40.972
40.959
40.927
40.889
40.858
40.849
40.838
40.826
40.805
40.803
40.795
40.774
40.724
40.685
40.669
40.673
40.66
40.633
40.598
40.572
40.559
40.547
40.527
40.48
40.431
40.397
40.389
40.384
40.372
40.342
40.306
40.259
40.21
40.17
40.135
40.11
40.074
40.037
39.996
39.963
39.925
39.891
39.856
39.834
39.808
39.791
39.764
39.733
39.68
39.631
39.589
39.559
39.519
39.47
39.416
39.369
39.331
39.284
39.223
39.162
39.11
39.067
39.016
38.961
38.906
38.849
38.798
38.744
38.685
38.617
38.566
38.535
38.508
38.463
38.391
38.314
38.238
38.178
38.109
38.031
37.95
37.878
37.823
37.765
37.708
37.639
37.58
37.524
37.472
37.42
37.374
37.329
37.268
37.188
37.1
37.017
36.938
36.864
36.788
36.719
36.653
36.604
36.554
36.504
36.442
36.376
36.3
36.218
36.124
36.036
35.962
35.906
35.854
35.798
35.742
35.674
35.592
35.5
35.418
35.349
35.27
35.172
35.059
34.958
34.871
34.797
34.727
34.666
34.605
34.546
34.493
34.441
34.381
34.299
34.214
34.131
34.068
34.007
33.951
33.878
33.797
33.706
33.625
33.56
33.49
33.418
33.328
33.243
33.158
33.092
33.035
32.983
32.918
32.84
32.754
32.674
32.604
32.54
32.471
32.392
32.305
32.225
32.152
32.088
32.012
31.943
31.871
31.811
31.734
31.65
31.549
31.455
31.385
31.344
31.315
31.263
31.203
31.142
31.084
31.016
30.935
30.865
30.796
30.735
30.66
30.597
30.532
30.492
30.449
30.409
30.352
30.29
30.236
30.179
30.131
30.072
30.015
29.946
29.873
29.801
29.741
29.702
29.674
29.637
29.571
29.493
29.421
29.372
29.337
29.318
29.289
29.246
29.187
29.145
29.112
29.075
29.028
28.979
28.937
28.893
28.841
28.79
28.743
28.716
28.685
28.664
28.632
28.61
28.581
28.55
28.514
28.478
28.437
28.392
28.346
28.314
28.284
28.258
28.222
28.191
28.163
28.147
28.122
28.095
28.062
28.041
28.026
28.006
27.974
27.94
27.911
27.896
27.886
27.883
27.87
27.848
27.813
27.79
27.777
27.783
27.787
27.791
27.778
27.752
27.73
27.715
27.71
27.698
27.692
27.682
27.675
27.661
27.655
27.65
27.647
27.638
27.624
27.611
27.595
27.587
27.582
27.592
27.599
27.608
27.607
27.602
27.594
27.596
27.603
27.611
27.609
27.605
27.6
27.594
27.594
27.6
27.61
27.623
27.631
27.647
27.661
27.685
27.704
27.729
27.742
27.749
27.745
27.751
27.763
27.769
27.771
27.783
27.82
27.858
27.888
27.9
27.91
27.919
27.936
27.951
27.964
27.969
27.98
27.998
28.02
28.04
28.057
28.08
28.099
28.123
28.144
28.181
28.214
28.245
28.261
28.282
28.304
28.333
28.352
28.368
28.38
28.406
28.442
28.489
28.534
28.566
28.583
28.59
28.599
28.628
28.672
28.732
28.772
28.795
28.804
28.816
28.849
28.897
28.96
29.01
29.048
29.084
29.126
29.186
29.236
29.277
29.293
29.304
29.327
29.369
29.427
29.475
29.519
29.553
29.602
29.657
29.712
29.75
29.779
29.819
29.867
29.92
29.966
30.019
30.072
30.122
30.157
30.186
30.219
30.279
30.358
30.431
30.475
30.495
30.52
30.554
30.606
30.664
30.732
30.796
30.861
30.923
30.986
31.031
31.064
31.088
31.125
31.174
31.231
31.286
31.338
31.386
31.435
31.486
31.542
31.598
31.649
31.678
31.701
31.721
31.771
31.827
31.889
31.929
31.97
32.013
32.064
32.106
32.138
32.161
32.198
32.241
32.297
32.341
32.384
32.421
32.46
32.487
32.515
32.536
32.575
32.612
32.655
32.69
32.722
32.757
32.796
32.855
32.913
32.961
32.985
33.003
33.027
33.058
33.087
33.105
33.124
33.157
33.204
33.262
33.305
33.352
33.382
33.407
33.407
33.419
33.445
33.5
33.552
33.602
33.638
33.668
33.689
33.694
33.703
33.719
33.764
33.813
33.857
33.882
33.889
33.896
33.896
33.91
33.936
33.968
33.998
34.014
34.04
34.081
34.136
34.179
34.204
34.21
34.22
34.238
34.281
34.325
34.362
34.376
34.38
34.39
34.405
34.44
34.478
34.522
34.537
34.543
34.55
34.577
34.606
34.629
34.643
34.66
34.67
34.684
34.699
34.725
34.751
34.773
34.784
34.794
34.801
34.826
34.856
34.89
34.902
34.909
34.922
34.948
34.973
34.994
35.008
35.027
35.037
35.05
35.052
35.07
35.089
35.114
35.119
35.116
35.114
35.126
35.151
35.182
35.215
35.233
35.245
35.253
35.27
35.281
35.287
35.287
35.288
35.289
35.295
35.32
35.352
35.372
35.38
35.383
35.396
35.403
35.415
35.425
35.453
35.475
35.495
35.503
35.514
35.523
35.522
35.523
35.539
35.581
35.624
35.646
35.651
35.646
35.652
35.664
35.695
35.731
35.775
35.805
35.818
35.814
35.815
35.826
35.849
35.882
35.914
35.949
35.974
36.01
36.042
36.071
36.073
36.075
36.09
36.127
36.173
36.21
36.235
36.249
36.273
36.306
36.339
36.356
36.358
36.363
36.376
36.395
36.416
36.44
36.47
36.496
36.523
36.548
36.57
36.593
36.617
36.647
36.665
36.684
36.714
36.754
36.794
36.817
36.842
36.862
36.898
36.925
36.944
36.94
36.933
36.943
36.965
36.999
37.03
37.079
37.126
37.168
37.196
37.22
37.24
37.249
37.249
37.255
37.275
37.307
37.332
37.348
37.362
37.389
37.419
37.445
37.454
37.456
37.459
37.482
37.52
37.559
37.587
37.6
37.61
37.625
37.654
37.694
37.738
37.769
37.778
37.767
37.754
37.746
37.757
37.785
37.827
37.855
37.862
37.857
37.855
37.865
37.882
37.912
37.95
37.977
37.987
37.975
37.97
37.977
37.996
38.008
38.007
38.006
38.016
38.035
38.058
38.077
38.097
38.112
38.124
38.137
38.152
38.158
38.151
38.143
38.164
38.204
38.249
38.265
38.271
38.276
38.297
38.316
38.332
38.338
38.355
38.377
38.384
38.362
38.331
38.335
38.368
38.403
38.417
38.422
38.433
38.45
38.474
38.494
38.508
38.511
38.512
38.519
38.539
38.563
38.594
38.62
38.641
38.648
38.646
38.631
38.628
38.64
38.687
38.727
38.748
38.737
38.723
38.716
38.731
38.742
38.761
38.772
38.796
38.816
38.826
38.829
38.83
38.834
38.832
38.832
38.832
38.843
38.86
38.885
38.915
38.932
38.936
38.918
38.91
38.914
38.93
38.94
38.941
38.941
38.944
38.953
38.965
38.994
39.019
39.026
39.004
38.984
38.987
39.005
39.028
39.034
39.051
39.063
39.085
39.102
39.112
39.114
39.106
39.109
39.122
39.136
39.132
39.102
39.064
39.041
39.054
39.089
39.133
39.156
39.167
39.158
39.149
39.133
39.125
39.118
39.124
39.141
39.165
39.182
39.181
39.171
39.149
39.139
39.133
39.154
39.177
39.205
39.219
39.224
39.237
39.254
39.274
39.279
39.274
39.263
39.263
39.268
39.292
39.319
39.342
39.334
39.306
39.285
39.294
39.309
39.318
39.305
39.309
39.318
39.332
39.339
39.334
39.337
39.341
39.367
39.388
39.4
39.4
39.396
39.402
39.409
39.43
39.457
39.483
39.501
39.507
39.502
39.496
39.491
39.499
39.522
39.561
39.614
39.648
39.656
39.634
39.613
39.608
39.612
39.614
39.605
39.605
39.625
39.661
39.693
39.711
39.734
39.758
39.779
39.785
39.789
39.788
39.776
39.768
39.777
39.8
39.81
39.799
39.793
39.797
39.828
39.857
39.879
39.884
39.901
39.923
39.946
39.955
39.959
39.954
39.965
39.98
40.012
40.018
40.021
40.019
40.031
40.039
40.039
40.032
40.034
40.044
40.053
40.045
40.028
40.037
40.062
40.087
40.081
40.072
40.087
40.124
40.156
40.161
40.156
40.164
40.191
40.221
40.241
40.244
40.237
40.235
40.239
40.247
40.248
40.243
40.235
40.225
40.224
40.224
40.236
40.254
40.279
40.297
40.315
40.325
40.331
40.328
40.334
40.343
40.353
40.345
40.337
40.33
40.354
40.387
40.429
40.442
40.445
40.425
40.416
40.402
40.414
40.424
40.444
40.451
40.468
40.493
40.516
40.535
40.54
40.556
40.567
40.575
40.565
40.545
40.539
40.545
40.575
40.597
40.623
40.634
40.637
40.631
40.627
40.635
40.642
40.639
40.624
40.611
40.608
40.624
40.634
40.641
40.645
40.654
40.666
40.678
40.699
40.726
40.742
40.748
40.747
40.746
40.743
40.741
40.735
40.729
40.726
40.74
40.765
40.784
40.793
40.796
40.798
40.794
40.779
40.769
40.767
40.779
40.793
40.8
40.803
40.793
40.78
40.766
40.748
40.736
40.724
40.738
40.752
40.767
40.765
40.758
40.753
40.749
40.753
40.761
40.765
40.762
40.743
40.737
40.721
40.716
40.691
40.674
40.657
40.656
40.66
40.677
40.696
40.722
40.732
40.734
40.729
40.731
40.733
40.734
40.745
40.757
40.767
40.765
40.766
40.764
40.76
40.75
40.743
40.736
40.74
40.756
40.786
40.808
40.819
40.816
40.812
40.805
40.798
40.804
40.832
40.872
40.895
40.888
40.873
40.864
40.858
40.851
40.843
40.859
40.879
40.896
40.901
40.908
40.932
40.953
40.975
40.976
40.984
40.987
40.991
40.983
40.97
40.97
40.983
41.007
41.027
41.035
41.048
41.054
41.06
41.051
41.04
41.031
41.012
41.01
41.014
41.038
41.044
41.056
41.074
41.109
41.137
41.153
41.155
41.137
41.102
41.071
41.054
41.056
41.061
41.071
41.072
41.078
41.088
41.107
41.11
41.099
41.092
41.096
41.094
41.078
41.058
41.058
41.078
41.106
41.121
41.12
41.11
41.108
41.108
41.115
41.125
41.139
41.142
41.142
41.135
41.131
41.124
41.124
41.13
41.137
41.143
41.143
41.155
41.163
41.167
41.162
41.175
41.196
41.216
41.218
41.219
41.212
41.198
41.178
41.171
41.164
41.171
41.177
41.193
41.197
41.202
41.204
41.214
41.22
41.232
41.236
41.239
41.227
41.234
41.237
41.255
41.246
41.25
41.259
41.288
41.306
41.313
41.311
41.317
41.32
41.322
41.312
41.311
41.325
41.353
41.368
41.364
41.347
41.336
41.334
41.335
41.344
41.36
41.383
41.393
41.391
41.396
41.418
41.457
41.48
41.488
41.478
41.479
41.477
41.48
41.474
41.486
41.512
41.537
41.545
41.527
41.515
41.516
41.542
41.567
41.574
41.558
41.546
41.554
41.574
41.584
41.59
41.613
41.643
41.651
41.624
41.597
41.591
41.612
41.637
41.651
41.65
41.642
41.645
41.65
41.669
41.682
41.684
41.664
41.633
41.622
41.626
41.644
41.654
41.652
41.643
41.633
41.634
41.645
41.649
41.646
41.644
41.65
41.675
41.691
41.695
41.679
41.667
41.674
41.684
41.681
41.668
41.663
41.675
41.688
41.693
41.694
41.687
41.694
41.701
41.713
41.705
41.699
41.697
41.713
41.718
41.713
41.685
41.668
41.66
41.683
41.696
41.703
41.681
41.657
41.631
41.617
41.609
41.604
41.615
41.64
41.681
41.704
41.708
41.689
41.663
41.642
41.638
41.655
41.672
41.672
41.66
41.653
41.65
41.648
41.631
41.628
41.63
41.642
41.633
41.614
41.607
41.615
41.627
41.629
41.634
41.66
41.674
41.679
41.663
41.663
41.656
41.639
41.614
41.605
41.618
41.636
41.653
41.655
41.654
41.643
41.641
41.642
41.641
41.641
41.642
41.651
41.653
41.65
41.645
41.64
41.643
41.651
41.672
41.701
41.725
41.729
41.713
41.699
41.695
41.703
41.704
41.708
41.707
41.706
41.696
41.699
41.703
41.734
41.764
41.806
41.812
41.801
41.784
41.793
41.803
41.802
41.778
41.753
41.734
41.731
41.747
41.767
41.781
41.783
41.782
41.778
41.782
41.804
41.844
41.89
41.909
41.902
41.881
41.868
41.867
41.875
41.873
41.869
41.859
41.866
41.872
41.877
41.882
41.893
41.918
41.942
41.96
41.965
41.956
41.952
41.949
41.958
41.954
41.953
41.954
41.969
41.992
42.014
42.026
42.021
42.004
41.981
41.965
41.961
41.972
41.984
42.008
42.029
42.05
42.06
42.065
42.066
42.055
42.04
42.025
42.008
41.999
41.994
42.021
42.051
42.085
42.1
42.115
42.123
42.127
42.116
42.087
42.063
42.052
42.076
42.092
42.105
42.099
42.106
42.12
42.134
42.132
42.123
42.115
42.129
42.144
42.162
42.16
42.16
42.163
42.183
42.207
42.227
42.226
42.216
42.2
42.198
42.196
42.21
42.215
42.232
42.236
42.25
42.253
42.257
42.249
42.247
42.254
42.264
42.281
42.288
42.303
42.305
42.313
42.317
42.329
42.33
42.33
42.321
42.322
42.328
42.343
42.352
42.35
42.342
42.337
42.328
42.325
42.329
42.357
42.391
42.411
42.421
42.427
42.454
42.469
42.476
42.46
42.447
42.44
42.449
42.467
42.484
42.489
42.478
42.466
42.466
42.478
42.504
42.528
42.549
42.556
42.552
42.548
42.541
42.541
42.531
42.531
42.529
42.544
42.557
42.583
42.606
42.634
42.649
42.667
42.679
42.685
42.677
42.65
42.632
42.62
42.623
42.622
42.631
42.649
42.673
42.675
42.657
42.643
42.651
42.68
42.695
42.698
42.697
42.696
42.7
42.689
42.683
42.689
42.714
42.736
42.747
42.745
42.75
42.753
42.765
42.778
42.805
42.815
42.806
42.788
42.792
42.806
42.806
42.786
42.784
42.801
42.818
42.811
42.799
42.788
42.786
42.79
42.81
42.831
42.832
42.818
42.797
42.795
42.806
42.824
42.828
42.811
42.791
42.784
42.794
42.803
42.807
42.801
42.802
42.804
42.808
42.811
42.816
42.832
42.834
42.827
42.804
42.8
42.797
42.795
42.792
42.793
42.79
42.774
42.768
42.783
42.819
42.849
42.87
42.86
42.84
42.805
42.792
42.793
42.809
42.819
42.825
42.829
42.835
42.841
42.843
42.84
42.837
42.829
42.818
42.792
42.764
42.754
42.765
42.795
42.812
42.82
42.814
42.799
42.78
42.773
42.792
42.818
42.828
42.823
42.805
42.79
42.77
42.767
42.78
42.791
42.79
42.767
42.759
42.761
42.773
42.784
42.792
42.797
42.799
42.807
42.816
42.822
42.815
42.797
42.78
42.767
42.772
42.784
42.803
42.812
42.813
42.821
42.833
42.851
42.846
42.835
42.803
42.775
42.743
42.736
42.759
42.808
42.848
42.85
42.825
42.797
42.778
42.765
42.756
42.773
42.806
42.846
42.871
42.894
42.91
42.908
42.887
42.86
42.862
42.871
42.895
42.897
42.9
42.893
42.896
42.908
42.931
42.949
42.957
42.939
42.919
42.911
42.933
42.963
42.968
42.947
42.922
42.919
42.926
42.932
42.915
42.883
42.845
42.823
42.82
42.836
42.853
42.858
42.858
42.857
42.863
42.86
42.846
42.827
42.817
42.824
42.828
42.827
42.811
42.81
42.805
42.804
42.784
42.769
42.76
42.766
42.768
42.76
42.742
42.723
42.702
42.665
42.629
42.604
42.614
42.627
42.635
42.631
42.621
42.606
42.578
42.549
42.52
42.502
42.494
42.498
42.503
42.507
42.491
42.455
42.406
42.364
42.344
42.325
42.311
42.286
42.271
42.262
42.254
42.232
42.195
42.163
42.149
42.14
42.13
42.118
42.122
42.126
42.104
42.053
41.981
41.923
41.88
41.864
41.867
41.868
41.848
41.81
41.771
41.739
41.708
41.68
41.666
41.648
41.627
41.588
41.563
41.541
41.519
41.485
41.446
41.413
41.381
41.345
41.313
41.295
41.295
41.291
41.267
41.216
41.154
41.094
41.054
41.02
40.984
40.95
40.936
40.93
40.905
40.843
40.776
40.716
40.683
40.641
40.603
40.559
40.52
40.485
40.446
40.421
40.394
40.363
40.304
40.235
40.188
40.17
40.156
40.123
40.072
40.019
39.968
39.912
39.863
39.806
39.752
39.696
39.651
39.614
39.574
39.53
39.475
39.417
39.35
39.282
39.212
39.155
39.093
39.036
38.977
38.933
38.89
38.847
38.787
38.712
38.635
38.554
38.487
38.409
38.349
38.296
38.263
38.222
38.164
38.092
38.02
37.953
37.895
37.841
37.791
37.743
37.683
37.622
37.553
37.488
37.414
37.331
37.243
37.157
37.089
37.042
37.008
36.955
36.872
36.782
36.711
36.661
36.598
36.521
36.445
36.374
36.319
36.258
36.202
36.126
36.049
35.972
35.914
35.865
35.817
35.76
35.693
35.625
35.557
35.484
35.416
35.35
35.294
35.227
35.161
35.107
35.071
35.024
34.952
34.855
34.77
34.69
34.628
34.566
34.51
34.463
34.417
34.362
34.288
34.199
34.12
34.047
33.984
33.918
33.859
33.802
33.743
33.683
33.621
33.561
33.501
33.446
33.39
33.331
33.268
33.215
33.172
33.133
33.087
33.035
32.984
32.943
32.898
32.838
32.765
32.696
32.635
32.57
32.493
32.42
32.362
32.332
32.307
32.275
32.218
32.157
32.116
32.092
32.071
32.031
31.994
31.952
31.909
31.849
31.793
31.747
31.703
31.659
31.611
31.575
31.541
31.509
31.468
31.422
31.374
31.323
31.278
31.235
31.202
31.167
31.138
31.105
31.082
31.049
31.018
30.977
30.934
30.884
30.848
30.816
30.789
30.74
30.691
30.659
30.644
30.631
30.594
30.556
30.523
30.507
30.485
30.449
30.4
30.354
30.318
30.303
30.301
30.3
30.279
30.246
30.223
30.203
30.186
30.146
30.12
30.093
30.084
30.064
30.047
30.027
30.004
29.984
29.969
29.962
29.937
29.9
29.863
29.857
29.86
29.855
29.826
29.8
29.778
29.763
29.741
29.721
29.701
29.687
29.683
29.678
29.662
29.624
29.593
29.579
29.586
29.59
29.574
29.547
29.522
29.513
29.508
29.499
29.494
29.494
29.501
29.498
29.485
29.464
29.44
29.423
29.414
29.409
29.405
29.398
29.389
29.379
29.369
29.363
29.357
29.356
29.357
29.355
29.341
29.309
29.283
29.258
29.259
29.272
29.302
29.308
29.284
29.231
29.191
29.166
29.166
29.162
29.155
29.135
29.122
29.117
29.123
29.121
29.112
29.098
29.093
29.093
29.091
29.085
29.082
29.074
29.052
29.015
28.983
28.967
28.971
28.983
28.994
28.99
28.98
28.969
28.958
28.936
28.902
28.874
28.866
28.864
28.86
28.849
28.843
28.841
28.832
28.817
28.787
28.757
28.727
28.717
28.715
28.72
28.711
28.7
28.684
28.674
28.655
28.638
28.621
28.623
28.623
28.628
28.619
28.615
28.606
28.598
28.586
28.571
28.552
28.525
28.495
28.457
28.43
28.416
28.42
28.425
28.417
28.396
28.375
28.367
28.369
28.36
28.335
28.312
28.304
28.301
28.29
28.268
28.249
28.222
28.183
28.135
28.099
28.09
28.103
28.114
28.123
28.108
28.094
28.067
28.051
28.031
28.008
27.98
27.95
27.924
27.908
27.895
27.888
27.88
27.878
27.868
27.848
27.824
27.801
27.772
27.731
27.7
27.682
27.683
27.682
27.679
27.666
27.646
27.624
27.611
27.602
27.591
27.568
27.54
27.508
27.482
27.455
27.432
27.409
27.395
27.39
27.385
27.375
27.352
27.33
27.31
27.291
27.272
27.256
27.251
27.25
27.242
27.226
27.209
27.2
27.189
27.171
27.141
27.127
27.119
27.119
27.102
27.086
27.065
27.037
27.002
26.973
26.964
26.965
26.964
26.962
26.952
26.935
26.904
26.877
26.859
26.844
26.827
26.804
26.793
26.787
26.781
26.757
26.728
26.704
26.7
26.694
26.687
26.679
26.685
26.69
26.672
26.645
26.621
26.614
26.607
26.593
26.579
26.569
26.573
26.567
26.56
26.535
26.525
26.513
26.525
26.535
26.544
26.526
26.497
26.471
26.461
26.453
26.442
26.425
26.414
26.407
26.402
26.403
26.411
26.427
26.429
26.416
26.386
26.369
26.358
26.361
26.362
26.359
26.344
26.333
26.326
26.327
26.319
26.313
26.307
26.309
26.314
26.315
26.314
26.304
26.297
26.285
26.272
26.255
26.242
26.223
26.198
26.169
26.162
26.166
26.184
26.187
26.187
26.178
26.176
26.177
26.174
26.165
26.147
26.14
26.133
26.13
26.114
26.102
26.096
26.097
26.098
26.101
26.106
26.107
26.1
26.085
26.064
26.046
26.035
26.041
26.041
26.038
26.022
26.015
26.016
26.027
26.034
26.039
26.036
26.032
26.015
26.005
25.994
26.002
26.008
26.026
26.034
26.04
26.031
26.019
26.003
25.994
25.992
25.996
25.993
25.988
25.977
25.982
25.985
25.987
25.976
25.956
25.938
25.931
25.939
25.958
25.967
25.965
25.947
25.929
25.911
25.895
25.887
25.89
25.901
25.916
25.921
25.934
25.941
25.948
25.936
25.921
25.908
25.903
25.894
25.87
25.845
25.841
25.857
25.872
25.879
25.874
25.87
25.857
25.849
25.843
25.843
25.84
25.839
25.835
25.828
25.81
25.793
25.783
25.784
25.788
25.783
25.773
25.765
25.77
25.786
25.793
25.784
25.763
25.75
25.745
25.736
25.724
25.711
25.713
25.715
25.716
25.712
25.718
25.721
25.714
25.697
25.68
25.666
25.648
25.641
25.648
25.655
25.653
25.641
25.639
25.639
25.642
25.642
25.642
25.641
25.636
25.63
25.628
25.627
25.631
25.629
25.624
25.613
25.602
25.591
25.587
25.582
25.58
25.576
25.579
25.579
25.581
25.58
25.576
25.565
25.548
25.54
25.534
25.531
25.516
25.506
25.501
25.5
25.497
25.496
25.502
25.513
25.525
25.529
25.522
25.51
25.499
25.496
25.49
25.479
25.46
25.443
25.427
25.417
25.415
25.421
25.427
25.423
25.411
25.395
25.387
25.39
25.403
25.411
25.4
25.38
25.361
25.355
25.355
25.356
25.349
25.341
25.336
25.339
25.334
25.331
25.323
25.322
25.318
25.317
25.305
25.291
25.266
25.255
25.253
25.265
25.274
25.271
25.264
25.253
25.244
25.228
25.223
25.224
25.23
25.226
25.216
25.201
25.193
25.193
25.198
25.194
25.183
25.173
25.167
25.163
25.162
25.166
25.174
25.17
25.157
25.137
25.124
25.108
25.092
25.084
25.087
25.099
25.104
25.106
25.1
25.091
25.079
25.075
25.069
25.065
25.055
25.051
25.053
25.051
25.049
25.039
25.036
25.041
25.057
25.067
25.059
25.032
25.011
25.005
25.019
25.033
25.035
25.029
25.011
24.999
24.982
24.979
24.973
24.97
24.96
24.951
24.945
24.938
24.926
24.918
24.922
24.936
24.948
24.94
24.923
24.901
24.894
24.894
24.897
24.896
24.897
24.904
24.906
24.895
24.876
24.86
24.853
24.845
24.839
24.84
24.856
24.873
24.885
24.881
24.872
24.853
24.832
24.812
24.806
24.808
24.808
24.795
24.781
24.772
24.779
24.787
24.791
24.786
24.778
24.774
24.774
24.771
24.764
24.764
24.77
24.772
24.764
24.752
24.743
24.736
24.733
24.731
24.734
24.73
24.723
24.71
24.706
24.704
24.703
24.696
24.699
24.699
24.697
24.691
24.696
24.708
24.707
24.685
24.658
24.64
24.641
24.647
24.658
24.657
24.654
24.648
24.642
24.637
24.633
24.636
24.64
24.641
24.634
24.627
24.62
24.618
24.612
24.609
24.607
24.61
24.605
24.596
24.586
24.589
24.595
24.598
24.588
24.582
24.574
24.577
24.58
24.591
24.597
24.592
24.573
24.556
24.547
24.549
24.552
24.552
24.55
24.547
24.548
24.552
24.547
24.54
24.527
24.524
24.515
24.502
24.482
24.47
24.466
24.464
24.463
24.466
24.471
24.47
24.453
24.441
24.438
24.444
24.437
24.423
24.416
24.423
24.425
24.422
24.41
24.41
24.41
24.418
24.425
24.429
24.417
24.401
24.392
24.393
24.394
24.384
24.37
24.352
24.342
24.326
24.31
24.302
24.309
24.332
24.346
24.346
24.334
24.318
24.306
24.302
24.302
24.304
24.294
24.283
24.264
24.264
24.275
24.285
24.278
24.257
24.235
24.217
24.203
24.2
24.208
24.217
24.229
24.23
24.226
24.21
24.196
24.195
24.195
24.202
24.202
24.206
24.213
24.216
24.213
24.193
24.176
24.162
24.16
24.162
24.165
24.165
24.164
24.16
24.162
24.167
24.177
24.178
24.173
24.161
24.149
24.146
24.149
24.161
24.163
24.158
24.145
24.133
24.126
24.109
24.09
24.072
24.078
24.095
24.115
24.119
24.124
24.121
24.117
24.11
24.113
24.12
24.122
24.115
24.106
24.092
24.079
24.073
24.078
24.083
24.078
24.066
24.05
24.045
24.047
24.057
24.062
24.055
24.038
24.021
24.02
24.017
24.01
23.995
23.997
24.013
24.021
24.019
24.006
24.008
24.005
24.007
24.009
24.016
24.023
24.016
24.017
24.015
24.019
24.009
23.995
23.981
23.97
23.964
23.958
23.962
23.971
23.985
23.996
24
24
24.002
24.006
23.997
23.971
23.939
23.914
23.904
23.902
23.904
23.911
23.923
23.937
23.942
23.942
23.931
23.918
23.898
23.888
23.88
23.884
23.891
23.903
23.908
23.905
23.885
23.86
23.836
23.836
23.851
23.866
23.864
23.853
23.839
23.833
23.823
23.825
23.826
23.83
23.825
23.826
23.837
23.846
23.846
23.83
23.817
23.808
23.806
23.804
23.798
23.784
23.774
23.771
23.777
23.779
23.771
23.761
23.757
23.76
23.763
23.758
23.753
23.75
23.754
23.759
23.759
23.754
23.744
23.734
23.732
23.734
23.737
23.737
23.73
23.725
23.714
23.702
23.692
23.694
23.704
23.712
23.714
23.708
23.693
23.673
23.661
23.663
23.674
23.691
23.703
23.709
23.697
23.672
23.652
23.644
23.651
23.65
23.644
23.639
23.642
23.652
23.654
23.659
23.657
23.664
23.662
23.663
23.654
23.639
23.625
23.619
23.622
23.612
23.602
23.596
23.608
23.61
23.599
23.585
23.584
23.595
23.603
23.602
23.594
23.58
23.572
23.573
23.579
23.578
23.569
23.558
23.557
23.557
23.555
23.543
23.536
23.542
23.56
23.577
23.587
23.587
23.587
23.586
23.587
23.584
23.578
23.566
23.552
23.539
23.536
23.54
23.553
23.564
23.576
23.577
23.575
23.565
23.56
23.557
23.562
23.568
23.566
23.554
23.544
23.545
23.554
23.554
23.544
23.531
23.529
23.539
23.553
23.558
23.556
23.551
23.547
23.54
23.532
23.528
23.522
23.519
23.518
23.532
23.551
23.567
23.569
23.554
23.535
23.519
23.509
23.5
23.492
23.498
23.512
23.533
23.543
23.546
23.539
23.529
23.512
23.504
23.498
23.503
23.502
23.504
23.497
23.498
23.494
23.499
23.49
23.482
23.468
23.466
23.466
23.47
23.466
23.46
23.45
23.448
23.451
23.455
23.454
23.449
23.447
23.458
23.469
23.471
23.456
23.44
23.431
23.43
23.428
23.426
23.426
23.426
23.424
23.421
23.424
23.44
23.459
23.471
23.464
23.442
23.425
23.42
23.433
23.436
23.431
23.412
23.401
23.394
23.398
23.402
23.406
23.403
23.398
23.387
23.378
23.373
23.374
23.373
23.372
23.376
23.383
23.386
23.384
23.388
23.401
23.415
23.417
23.408
23.397
23.393
23.39
23.387
23.38
23.373
23.36
23.345
23.333
23.334
23.352
23.378
23.397
23.401
23.388
23.377
23.368
23.371
23.374
23.377
23.38
23.383
23.389
23.388
23.379
23.366
23.344
23.328
23.32
23.335
23.354
23.362
23.352
23.339
23.334
23.334
23.332
23.332
23.338
23.361
23.382
23.393
23.384
23.364
23.348
23.334
23.327
23.322
23.321
23.331
23.342
23.355
23.352
23.344
23.339
23.345
23.355
23.361
23.359
23.353
23.345
23.348
23.357
23.362
23.363
23.362
23.36
23.348
23.33
23.323
23.332
23.347
23.35
23.343
23.333
23.329
23.329
23.326
23.32
23.316
23.328
23.348
23.363
23.361
23.35
23.338
23.324
23.311
23.3
23.295
23.294
23.296
23.306
23.313
23.318
23.317
23.316
23.313
23.308
23.307
23.313
23.32
23.322
23.318
23.312
23.31
23.305
23.295
23.28
23.274
23.277
23.292
23.302
23.304
23.299
23.296
23.3
23.305
23.301
23.297
23.297
23.307
23.316
23.319
23.309
23.301
23.297
23.3
23.297
23.291
23.289
23.295
23.302
23.303
23.292
23.274
23.265
23.277
23.301
23.317
23.313
23.299
23.279
23.265
23.254
23.253
23.256
23.255
23.255
23.252
23.254
23.26
23.265
23.27
23.267
23.268
23.269
23.27
23.263
23.249
23.24
23.233
23.231
23.229
23.231
23.241
23.246
23.249
23.245
23.256
23.267
23.274
23.266
23.255
23.245
23.237
23.227
23.218
23.206
23.203
23.207
23.224
23.238
23.241
23.227
23.213
23.21
23.218
23.221
23.223
23.219
23.215
23.204
23.189
23.175
23.17
23.181
23.197
23.206
23.204
23.201
23.207
23.209
23.21
23.214
23.229
23.246
23.252
23.238
23.218
23.204
23.206
23.21
23.209
23.199
23.193
23.198
23.211
23.219
23.211
23.185
23.162
23.156
23.161
23.168
23.17
23.176
23.176
23.162
23.148
23.136
23.144
23.15
23.166
23.176
23.187
23.189
23.184
23.174
23.162
23.157
23.153
23.153
23.155
23.159
23.161
23.16
23.164
23.169
23.164
23.147
23.128
23.117
23.109
23.101
23.093
23.092
23.092
23.103
23.113
23.127
23.128
23.129
23.125
23.119
23.11
23.102
23.105
23.116
23.12
23.115
23.094
23.079
23.069
23.072
23.07
23.065
23.055
23.052
23.055
23.066
23.079
23.086
23.082
23.065
23.045
23.031
23.027
23.024
23.023
23.021
23.023
23.014
23
22.988
22.988
23.004
23.019
23.036
23.042
23.045
23.043
23.041
23.034
23.022
23.002
22.999
23.001
23.013
23.013
23.013
23.01
23.013
23.017
23.022
23.016
22.995
22.974
22.965
22.974
22.985
22.991
22.988
22.991
22.997
23.005
23.001
22.994
22.985
22.981
22.973
22.968
22.969
22.976
22.985
22.991
22.988
22.981
22.963
22.956
22.951
22.953
22.943
22.932
22.922
22.918
22.915
22.914
22.912
22.909
22.903
22.896
22.894
22.892
22.893
22.888
22.888
22.888
22.89
22.892
22.889
22.883
22.873
22.865
22.863
22.867
22.865
22.863
22.852
22.844
22.838
22.844
22.854
22.858
22.852
22.838
22.823
22.81
22.802
22.801
22.804
22.808
22.811
22.808
22.801
22.796
22.798
22.804
22.806
22.809
22.811
22.81
22.801
22.781
22.764
22.753
22.753
22.753
22.754
22.759
22.767
22.773
22.766
22.755
22.737
22.724
22.715
22.717
22.73
22.738
22.733
22.712
22.695
22.684
22.678
22.671
22.675
22.674
22.669
22.651
22.641
22.636
22.639
22.642
22.646
22.647
22.633
22.616
22.602
22.598
22.598
22.598
22.601
22.595
22.588
22.576
22.574
22.58
22.585
22.582
22.564
22.551
22.545
22.55
22.543
22.531
22.515
22.505
22.495
22.489
22.485
22.488
22.489
22.493
22.49
22.487
22.479
22.474
22.47
22.462
22.454
22.45
22.451
22.452
22.447
22.433
22.416
22.404
22.412
22.424
22.433
22.421
22.408
22.398
22.4
22.395
22.382
22.362
22.349
22.347
22.359
22.367
22.366
22.356
22.346
22.339
22.334
22.332
22.329
22.321
22.312
22.303
22.301
22.299
22.299
22.298
22.302
22.307
22.312
22.309
22.297
22.276
22.261
22.252
22.249
22.249
22.248
22.254
22.259
22.263
22.255
22.239
22.223
22.215
22.221
22.225
22.224
22.214
22.203
22.191
22.183
22.19
22.201
22.204
22.19
22.164
22.14
22.121
22.116
22.131
22.146
22.162
22.154
22.147
22.132
22.125
22.123
22.13
22.14
22.142
22.134
22.119
22.111
22.11
22.111
22.112
22.113
22.115
22.113
22.106
22.098
22.086
22.077
22.068
22.071
22.074
22.076
22.073
22.07
22.078
22.077
22.078
22.066
22.059
22.048
22.04
22.038
22.039
22.041
22.035
22.034
22.038
22.05
22.056
22.055
22.048
22.045
22.04
22.028
22.01
21.999
21.992
21.987
21.979
21.982
21.998
22.015
22.028
22.022
22.015
22
21.997
21.994
22.003
22.002
21.994
21.978
21.968
21.965
21.969
21.979
21.984
21.981
21.97
21.958
21.954
21.956
21.962
21.965
21.966
21.959
21.951
21.937
21.934
21.933
21.946
21.948
21.945
21.936
21.938
21.938
21.928
21.905
21.892
21.894
21.911
21.922
21.928
21.921
21.914
21.91
21.919
21.931
21.94
21.942
21.939
21.933
21.926
21.916
21.911
21.908
21.908
21.901
21.888
21.876
21.87
21.871
21.872
21.871
21.872
21.875
21.869
21.859
21.851
21.859
21.871
21.874
21.866
21.856
21.85
21.846
21.837
21.831
21.836
21.85
21.86
21.856
21.843
21.829
21.821
21.814
21.812
21.818
21.833
21.843
21.844
21.833
21.827
21.826
21.831
21.835
21.826
21.804
21.787
21.783
21.794
21.793
21.781
21.763
21.761
21.77
21.788
21.795
21.785
21.764
21.746
21.749
21.763
21.778
21.781
21.778
21.778
21.786
21.794
21.789
21.769
21.746
21.735
21.736
21.734
21.729
21.715
21.714
21.713
21.722
21.724
21.738
21.746
21.748
21.738
21.726
21.73
21.736
21.741
21.727
21.714
21.706
21.706
21.708
21.714
21.727
21.734
21.734
21.719
21.714
21.713
21.718
21.712
21.706
21.699
21.696
21.693
21.694
21.698
21.702
21.703
21.71
21.721
21.731
21.726
21.719
21.711
21.705
21.695
21.683
21.678
21.676
21.681
21.683
21.687
21.691
21.696
21.707
21.713
21.712
21.703
21.694
21.688
21.68
21.678
21.68
21.692
21.7
21.697
21.684
21.673
21.671
21.677
21.68
21.68
21.676
21.676
21.68
21.686
21.688
21.692
21.693
21.688
21.673
21.664
21.661
21.663
21.66
21.659
21.658
21.661
21.651
21.639
21.626
21.627
21.632
21.646
21.658
21.672
21.683
21.692
21.697
21.693
21.684
21.679
21.68
21.68
21.679
21.682
21.686
21.681
21.667
21.66
21.668
21.686
21.699
21.702
21.698
21.688
21.677
21.666
21.664
21.664
21.662
21.657
21.655
21.663
21.67
21.673
21.668
21.663
21.66
21.657
21.659
21.661
21.663
21.664
21.664
21.664
21.66
21.657
21.659
21.66
21.657
21.646
21.641
21.648
21.658
21.666
21.665
21.67
21.669
21.68
21.681
21.676
21.652
21.637
21.638
21.652
21.657
21.657
21.652
21.652
21.643
21.638
21.634
21.641
21.65
21.659
21.661
21.655
21.651
21.652
21.657
21.654
21.655
21.66
21.667
21.666
21.663
21.656
21.649
21.642
21.636
21.636
21.633
21.64
21.648
21.66
21.66
21.653
21.641
21.638
21.646
21.664
21.681
21.694
21.704
21.706
21.703
21.696
21.696
21.695
21.693
21.676
21.656
21.633
21.63
21.64
21.653
21.652
21.641
21.641
21.65
21.661
21.663
21.661
21.664
21.676
21.685
21.688
21.681
21.68
21.687
21.7
21.702
21.698
21.682
21.667
21.655
21.646
21.643
21.638
21.642
21.646
21.658
21.672
21.694
21.709
21.71
21.693
21.676
21.671
21.679
21.684
21.68
21.674
21.669
21.663
21.655
21.656
21.67
21.685
21.697
21.7
21.704
21.702
21.703
21.699
21.691
21.678
21.674
21.677
21.685
21.686
21.686
21.686
21.693
21.705
21.712
21.706
21.694
21.684
21.68
21.672
21.667
21.664
21.672
21.68
21.695
21.708
21.722
21.729
21.727
21.717
21.701
21.691
21.69
21.702
21.719
21.73
21.73
21.72
21.709
21.702
21.694
21.694
21.692
21.7
21.705
21.717
21.723
21.726
21.716
21.716
21.716
21.727
21.726
21.729
21.725
21.72
21.709
21.702
21.702
21.707
21.714
21.718
21.722
21.717
21.718
21.719
21.731
21.741
21.748
21.756
21.758
21.762
21.758
21.758
21.758
21.758
21.75
21.741
21.733
21.737
21.743
21.752
21.757
21.753
21.748
21.74
21.753
21.776
21.801
21.805
21.801
21.793
21.791
21.782
21.773
21.77
21.781
21.794
21.799
21.794
21.788
21.787
21.786
21.789
21.788
21.787
21.781
21.777
21.778
21.781
21.79
21.793
21.801
21.802
21.801
21.787
21.774
21.771
21.784
21.8
21.813
21.823
21.824
21.821
21.812
21.808
21.805
21.81
21.821
21.834
21.835
21.825
21.814
21.81
21.81
21.808
21.807
21.81
21.814
21.82
21.82
21.827
21.827
21.833
21.824
21.815
21.805
21.803
21.806
21.798
21.798
21.802
21.82
21.831
21.832
21.822
21.808
21.801
21.803
21.811
21.823
21.83
21.836
21.83
21.823
21.818
21.818
21.817
21.815
21.81
21.813
21.815
21.826
21.828
21.836
21.838
21.838
21.83
21.824
21.82
21.83
21.839
21.857
21.864
21.872
21.873
21.872
21.863
21.844
21.824
21.812
21.81
21.81
21.813
21.818
21.829
21.835
21.836
21.833
21.833
21.838
21.844
21.842
21.832
21.82
21.809
21.805
21.812
21.824
21.841
21.842
21.842
21.829
21.829
21.829
21.834
21.839
21.848
21.86
21.86
21.852
21.838
21.826
21.818
21.819
21.828
21.84
21.837
21.825
21.811
21.811
21.813
21.82
21.825
21.837
21.84
21.837
21.825
21.818
21.82
21.828
21.837
21.838
21.836
21.831
21.83
21.834
21.848
21.858
21.853
21.839
21.832
21.838
21.849
21.857
21.86
21.859
21.852
21.851
21.851
21.856
21.853
21.855
21.861
21.869
21.869
21.856
21.847
21.842
21.849
21.85
21.855
21.846
21.836
21.82
21.828
21.839
21.842
21.822
21.8
21.798
21.812
21.835
21.846
21.857
21.86
21.863
21.86
21.862
21.863
21.871
21.874
21.876
21.866
21.852
21.84
21.839
21.834
21.832
21.83
21.84
21.843
21.847
21.849
21.855
21.857
21.852
21.847
21.845
21.847
21.847
21.854
21.863
21.872
21.866
21.857
21.847
21.85
21.861
21.874
21.877
21.874
21.875
21.878
21.88
21.871
21.865
21.856
21.855
21.845
21.84
21.834
21.84
21.846
21.861
21.865
21.866
21.858
21.855
21.851
21.852
21.849
21.848
21.846
21.849
21.852
21.86
21.869
21.878
21.879
21.872
21.861
21.851
21.844
21.84
21.843
21.859
21.884
21.901
21.897
21.875
21.858
21.858
21.864
21.863
21.848
21.839
21.844
21.856
21.868
21.873
21.872
21.875
21.877
21.885
21.885
21.883
21.875
21.869
21.871
21.88
21.892
21.895
21.893
21.885
21.882
21.874
21.878
21.881
21.895
21.893
21.894
21.889
21.894
21.896
21.895
21.887
21.879
21.879
21.887
21.892
21.895
21.892
21.89
21.891
21.901
21.913
21.916
21.9
21.872
21.848
21.843
21.857
21.877
21.887
21.881
21.874
21.872
21.881
21.88
21.872
21.858
21.858
21.869
21.882
21.879
21.874
21.875
21.891
21.909
21.928
21.94
21.946
21.942
21.933
21.92
21.903
21.892
21.885
21.882
21.88
21.879
21.881
21.891
21.903
21.914
21.914
21.918
21.925
21.936
21.934
21.924
21.905
21.891
21.888
21.897
21.905
21.897
21.879
21.872
21.88
21.901
21.911
21.909
21.895
21.887
21.889
21.899
21.905
21.906
21.9
21.902
21.901
21.905
21.898
21.898
21.903
21.916
21.93
21.933
21.927
21.913
21.904
21.905
21.912
21.925
21.939
21.952
21.958
21.956
21.949
21.94
21.93
21.918
21.907
21.902
21.901
21.904
21.903
21.908
21.911
21.921
21.921
21.915
21.9
21.89
21.882
21.878
21.874
21.877
21.889
21.903
21.915
21.917
21.908
21.895
21.885
21.884
21.882
21.879
21.871
21.868
21.863
21.866
21.866
21.866
21.86
21.854
21.859
21.864
21.877
21.881
21.886
21.878
21.871
21.858
21.854
21.857
21.868
21.88
21.878
21.864
21.845
21.839
21.839
21.838
21.828
21.819
21.816
21.824
21.835
21.846
21.856
21.863
21.861
21.852
21.843
21.84
21.838
21.836
21.835
21.841
21.85
21.854
21.854
21.859
21.871
21.886
21.886
21.873
21.853
21.841
21.834
21.83
21.825
21.828
21.831
21.833
21.833
21.837
21.847
21.853
21.86
21.861
21.863
21.858
21.857
21.858
21.864
21.871
21.879
21.883
21.886
21.885
21.894
21.904
21.912
21.91
21.903
21.902
21.898
21.895
21.894
21.897
21.906
21.908
21.904
21.889
21.873
21.866
21.871
21.881
21.892
21.901
21.91
21.917
21.921
21.92
21.917
21.915
21.924
21.932
21.937
21.931
21.934
21.942
21.944
21.936
21.921
21.925
21.931
21.946
21.945
21.945
21.938
21.938
21.943
21.959
21.977
21.991
21.997
22.001
21.998
21.998
21.998
22.01
22.018
22.017
22.001
21.986
21.974
21.976
21.986
22.001
22.01
22.007
22.002
22.005
22.014
22.024
22.023
22.021
22.015
22.02
22.024
22.029
22.025
22.019
22.016
22.014
22.016
22.02
22.02
22.018
22.014
22.02
22.025
22.024
22.011
22
21.997
22.009
22.022
22.04
22.042
22.041
22.041
22.055
22.067
22.07
22.052
22.028
22.002
21.997
22.011
22.03
22.039
22.041
22.047
22.052
22.048
22.042
22.04
22.041
22.037
22.024
22.007
21.998
22.003
22.016
22.024
22.027
22.024
22.021
22.017
22.02
22.028
22.032
22.033
22.03
22.028
22.012
21.995
21.984
21.995
22.012
22.031
22.036
22.031
22.017
22.008
22.006
22.005
21.998
21.987
21.977
21.976
21.984
21.988
21.984
21.973
21.972
21.975
21.979
21.97
21.956
21.954
21.962
21.976
21.981
21.975
21.971
21.972
21.982
21.989
21.989
21.984
21.974
21.971
21.957
21.949
21.938
21.944
21.949
21.958
21.964
21.971
21.971
21.964
21.961
21.962
21.962
21.959
21.958
21.967
21.977
21.982
21.977
21.969
21.965
21.956
21.948
21.94
21.94
21.938
21.934
21.934
21.937
21.945
21.949
21.951
21.949
21.949
21.951
21.959
21.972
21.978
21.973
21.96
21.959
21.967
21.971
21.972
21.966
21.973
21.976
21.979
21.974
21.968
21.969
21.975
21.989
22.001
22.003
21.995
21.984
21.986
21.991
21.993
21.984
21.975
21.977
21.984
21.992
21.987
21.98
21.972
21.963
21.961
21.957
21.971
21.986
22.007
22.017
22.014
22.003
21.994
22.002
22.018
22.03
22.031
22.02
22.013
22.006
22.004
22.003
22.013
22.018
22.016
22.008
22.014
22.031
22.045
22.051
22.053
22.052
22.052
22.05
22.057
22.063
22.075
22.079
22.078
22.065
22.055
22.053
22.063
22.078
22.094
22.112
22.124
22.125
22.12
22.107
22.093
22.08
22.077
22.084
22.092
22.102
22.105
22.107
22.102
22.098
22.101
22.11
22.117
22.119
22.123
22.131
22.138
22.142
22.144
22.149
22.156
22.159
22.157
22.151
22.148
22.148
22.142
22.135
22.126
22.132
22.145
22.162
22.17
22.165
22.155
22.148
22.148
22.155
22.16
22.166
22.167
22.165
22.165
22.158
22.15
22.138
22.14
22.148
22.159
22.16
22.158
22.166
22.176
22.193
22.192
22.189
22.168
22.162
22.158
22.162
22.16
22.154
22.151
22.149
22.155
22.159
22.165
22.168
22.171
22.17
22.167
22.162
22.162
22.162
22.166
22.169
22.165
22.151
22.128
22.115
22.114
22.121
22.121
22.115
22.104
22.091
22.078
22.077
22.088
22.108
22.118
22.118
22.113
22.116
22.121
22.13
22.135
22.134
22.117
22.092
22.073
22.072
22.086
22.099
22.103
22.097
22.088
22.08
22.081
22.087
22.102
22.114
22.12
22.119
22.123
22.123
22.121
22.107
22.103
22.098
22.101
22.099
22.102
22.106
22.105
22.099
22.091
22.09
22.098
22.106
22.11
22.109
22.103
22.104
22.1
22.095
22.084
22.078
22.086
22.094
22.105
22.106
22.102
22.087
22.071
22.064
22.068
22.08
22.089
22.094
22.09
22.081
22.076
22.084
22.098
22.104
22.094
22.078
22.067
22.066
22.069
22.075
22.085
22.096
22.112
22.122
22.124
22.115
22.102
22.099
22.104
22.109
22.108
22.105
22.101
22.097
22.093
22.096
22.103
22.112
22.113
22.113
22.116
22.128
22.134
22.132
22.117
22.105
22.09
22.081
22.075
22.084
22.097
22.105
22.102
22.098
22.101
22.111
22.117
22.114
22.113
22.121
22.14
22.155
22.164
22.159
22.15
22.132
22.121
22.117
22.126
22.137
22.142
22.14
22.14
22.15
22.165
22.174
22.169
22.154
22.14
22.136
22.143
22.154
22.159
22.165
22.169
22.171
22.167
22.159
22.154
22.151
22.156
22.16
22.164
22.168
22.174
22.187
22.19
22.187
22.173
22.167
22.166
22.169
22.168
22.168
22.168
22.176
22.186
22.196
22.203
22.204
22.208
22.213
22.212
22.208
22.199
22.196
22.195
22.196
22.2
22.206
22.216
22.227
22.23
22.227
22.217
22.21
22.211
22.217
22.224
22.228
22.234
22.241
22.248
22.248
22.24
22.233
22.233
22.236
22.236
22.235
22.237
22.24
22.242
22.241
22.233
22.227
22.224
22.231
22.234
22.229
22.223
22.223
22.235
22.242
22.246
22.237
22.231
22.225
22.225
22.224
22.221
22.218
22.216
22.219
22.223
22.226
22.22
22.213
22.213
22.223
22.237
22.24
22.234
22.221
22.214
22.212
22.205
22.193
22.186
22.19
22.197
22.195
22.184
22.173
22.168
22.167
22.171
22.178
22.186
22.186
22.183
22.181
22.182
22.185
22.185
22.182
22.174
22.168
22.161
22.157
22.157
22.162
22.163
22.156
22.147
22.146
22.153
22.167
22.177
22.187
22.187
22.188
22.184
22.185
22.183
22.178
22.165
22.162
22.17
22.178
22.172
22.159
22.155
22.162
22.17
22.175
22.177
22.187
22.194
22.2
22.197
22.196
22.194
22.194
22.193
22.195
22.195
22.192
22.187
22.187
22.192
22.202
22.211
22.218
22.225
22.225
22.225
22.219
22.223
22.227
22.232
22.23
22.224
22.226
22.232
22.246
22.251
22.252
22.249
22.249
22.252
22.257
22.261
22.26
22.251
22.246
22.246
22.256
22.266
22.281
22.292
22.293
22.282
22.265
22.252
22.246
22.249
22.264
22.279
22.296
22.301
22.306
22.303
22.303
22.298
22.29
22.278
22.27
22.27
22.276
22.283
22.292
22.298
22.296
22.286
22.279
22.272
22.266
22.257
22.259
22.266
22.269
22.265
22.258
22.254
22.252
22.246
22.235
22.223
22.222
22.229
22.236
22.229
22.215
22.197
22.185
22.173
22.168
22.167
22.171
22.169
22.162
22.148
22.138
22.127
22.118
22.105
22.096
22.088
22.077
22.065
22.058
22.058
22.053
22.037
22.024
22.02
22.023
22.011
21.994
21.978
21.97
21.96
21.945
21.94
21.944
21.957
21.952
21.933
21.905
21.888
21.888
21.893
21.897
21.889
21.879
21.866
21.852
21.83
21.809
21.788
21.776
21.762
21.753
21.751
21.758
21.765
21.76
21.746
21.727
21.717
21.712
21.712
21.708
21.697
21.692
21.69
21.693
21.687
21.675
21.66
21.647
21.639
21.637
21.641
21.646
21.648
21.634
21.614
21.591
21.585
21.589
21.601
21.604
21.601
21.598
21.598
21.6
21.592
21.586
21.578
21.578
21.573
21.576
21.581
21.589
21.589
21.586
21.582
21.58
21.584
21.596
21.603
21.602
21.59
21.593
21.606
21.62
21.623
21.618
21.616
21.618
21.63
21.643
21.656
21.654
21.65
21.649
21.655
21.657
21.656
21.657
21.664
21.672
21.678
21.685
21.693
21.707
21.719
21.734
21.745
21.748
21.748
21.749
21.757
21.761
21.766
21.767
21.769
21.778
21.784
21.796
21.795
21.793
21.788
21.79
21.797
21.805
21.822
21.841
21.859
21.87
21.876
21.877
21.879
21.88
21.888
21.894
21.901
21.904
21.906
21.911
21.918
21.923
21.926
21.927
21.936
21.938
21.937
21.93
21.926
21.93
21.935
21.95
21.96
21.974
21.978
21.98
21.979
21.981
21.985
21.984
21.976
21.965
21.951
21.941
21.934
21.936
21.942
21.948
21.952
21.951
21.947
21.941
21.941
21.942
21.946
21.944
21.942
21.935
21.932
21.921
21.91
21.902
21.903
21.905
21.918
21.928
21.943
21.939
21.934
21.915
21.897
21.874
21.861
21.864
21.881
21.894
21.883
21.854
21.819
21.804
21.8
21.803
21.803
21.802
21.81
21.823
21.828
21.81
21.778
21.75
21.728
21.713
21.701
21.701
21.712
21.718
21.713
21.699
21.689
21.69
21.695
21.691
21.673
21.65
21.633
21.622
21.612
21.605
21.597
21.594
21.59
21.591
21.588
21.581
21.57
21.564
21.566
21.572
21.579
21.58
21.573
21.563
21.559
21.562
21.564
21.562
21.553
21.543
21.535
21.532
21.526
21.51
21.491
21.479
21.484
21.492
21.497
21.498
21.5
21.499
21.489
21.474
21.467
21.469
21.474
21.474
21.47
21.464
21.456
21.448
21.441
21.445
21.45
21.455
21.448
21.439
21.436
21.438
21.455
21.468
21.486
21.49
21.488
21.478
21.473
21.483
21.503
21.521
21.523
21.515
21.509
21.516
21.534
21.555
21.57
21.575
21.57
21.565
21.557
21.562
21.566
21.576
21.572
21.565
21.559
21.575
21.602
21.627
21.635
21.633
21.631
21.633
21.638
21.642
21.64
21.638
21.647
21.668
21.692
21.699
21.701
21.7
21.71
21.72
21.729
21.739
21.751
21.766
21.775
21.781
21.788
21.79
21.792
21.788
21.792
21.798
21.804
21.807
21.807
21.811
21.812
21.819
21.821
21.831
21.848
21.874
21.897
21.906
21.902
21.892
21.888
21.896
21.916
21.935
21.942
21.938
21.947
21.966
21.99
21.995
21.993
21.986
21.983
21.977
21.966
21.96
21.958
21.964
21.98
22
22.018
22.024
22.019
22.015
22.014
22.024
22.034
22.042
22.04
22.034
22.026
22.019
22.02
22.031
22.038
22.037
22.025
22.02
22.023
22.028
22.037
22.043
22.052
22.052
22.047
22.033
22.022
22.01
22.008
22.013
22.018
22.018
22.009
22.007
22.012
22.021
22.03
22.032
22.036
22.031
22.028
22.022
22.018
22.009
21.996
21.987
21.984
21.983
21.983
21.976
21.971
21.966
21.965
21.959
21.948
21.943
21.94
21.938
21.929
21.925
21.917
21.908
21.883
21.858
21.841
21.84
21.842
21.841
21.843
21.845
21.845
21.83
21.816
21.8
21.785
21.762
21.746
21.742
21.743
21.741
21.734
21.726
21.711
21.687
21.669
21.656
21.648
21.634
21.62
21.612
21.604
21.593
21.581
21.575
21.572
21.565
21.548
21.527
21.51
21.504
21.501
21.49
21.474
21.459
21.455
21.45
21.436
21.413
21.393
21.38
21.371
21.357
21.343
21.326
21.314
21.305
21.298
21.297
21.291
21.288
21.281
21.277
21.268
21.252
21.235
21.218
21.21
21.199
21.189
21.176
21.168
21.166
21.163
21.159
21.148
21.133
21.118
21.104
21.099
21.094
21.093
21.09
21.088
21.085
21.084
21.087
21.085
21.084
21.08
21.082
21.084
21.085
21.079
21.064
21.049
21.04
21.04
21.044
21.049
21.053
21.054
21.049
21.048
21.042
21.039
21.031
21.034
21.042
21.055
21.061
21.065
21.06
21.058
21.05
21.051
21.051
21.059
21.066
21.076
21.083
21.091
21.103
21.114
21.122
21.127
21.136
21.144
21.147
21.144
21.143
21.146
21.156
21.163
21.173
21.179
21.197
21.217
21.236
21.243
21.239
21.234
21.224
21.216
21.215
21.225
21.245
21.264
21.282
21.299
21.321
21.341
21.356
21.361
21.365
21.371
21.382
21.393
21.4
21.405
21.409
21.417
21.424
21.431
21.438
21.451
21.468
21.477
21.474
21.469
21.473
21.488
21.502
21.51
21.509
21.511
21.524
21.544
21.563
21.57
21.572
21.571
21.576
21.583
21.6
21.616
21.631
21.631
21.628
21.621
21.619
21.618
21.624
21.637
21.655
21.665
21.666
21.655
21.651
21.654
21.661
21.665
21.667
21.68
21.692
21.708
21.718
21.73
21.732
21.728
21.719
21.714
21.707
21.698
21.689
21.688
21.69
21.699
21.708
21.717
21.717
21.715
21.712
21.708
21.696
21.681
21.673
21.678
21.692
21.696
21.695
21.69
21.694
21.7
21.703
21.708
21.711
21.719
21.716
21.717
21.708
21.702
21.693
21.691
21.687
21.686
21.689
21.698
21.7
21.691
21.674
21.659
21.645
21.638
21.636
21.641
21.645
21.649
21.649
21.644
21.626
21.609
21.598
21.594
21.591
21.588
21.588
21.59
21.586
21.583
21.578
21.581
21.585
21.587
21.577
21.551
21.522
21.504
21.51
21.519
21.52
21.507
21.492
21.489
21.491
21.489
21.479
21.466
21.459
21.46
21.471
21.481
21.485
21.478
21.466
21.454
21.441
21.426
21.411
21.399
21.391
21.389
21.393
21.399
21.404
21.402
21.395
21.385
21.377
21.372
21.363
21.351
21.338
21.333
21.334
21.332
21.331
21.329
21.33
21.318
21.307
21.298
21.299
21.298
21.299
21.302
21.301
21.295
21.285
21.278
21.276
21.27
21.26
21.249
21.242
21.241
21.242
21.244
21.25
21.262
21.272
21.266
21.246
21.221
21.21
21.202
21.197
21.195
21.204
21.215
21.221
21.225
21.225
21.226
21.221
21.225
21.224
21.225
21.216
21.212
21.211
21.214
21.216
21.213
21.206
21.198
21.195
21.197
21.206
21.213
21.222
21.223
21.22
21.21
21.201
21.203
21.209
21.216
21.211
21.203
21.196
21.194
21.203
21.213
21.219
21.212
21.203
21.197
21.199
21.202
21.21
21.217
21.226
21.228
21.231
21.229
21.229
21.216
21.205
21.192
21.186
21.183
21.19
21.202
21.213
21.209
21.2
21.197
21.205
21.214
21.225
21.232
21.237
21.231
21.226
21.226
21.234
21.247
21.256
21.259
21.249
21.236
21.23
21.237
21.249
21.255
21.249
21.234
21.219
21.21
21.21
21.224
21.242
21.251
21.247
21.238
21.236
21.236
21.239
21.24
21.247
21.252
21.256
21.253
21.249
21.243
21.237
21.234
21.237
21.251
21.265
21.277
21.282
21.285
21.283
21.279
21.276
21.278
21.279
21.276
21.273
21.273
21.275
21.274
21.27
21.262
21.259
21.266
21.281
21.295
21.299
21.3
21.309
21.317
21.317
21.309
21.309
21.315
21.32
21.321
21.319
21.32
21.314
21.305
21.293
21.286
21.286
21.294
21.312
21.332
21.35
21.355
21.35
21.337
21.328
21.329
21.333
21.331
21.328
21.324
21.324
21.326
21.325
21.32
21.316
21.314
21.316
21.308
21.303
21.294
21.296
21.297
21.305
21.313
21.323
21.335
21.348
21.358
21.353
21.341
21.322
21.312
21.309
21.315
21.326
21.335
21.341
21.337
21.328
21.316
21.3
21.291
21.287
21.291
21.287
21.283
21.284
21.296
21.316
21.327
21.332
21.325
21.32
21.31
21.303
21.296
21.292
21.285
21.276
21.266
21.26
21.26
21.26
21.26
21.253
21.248
21.242
21.247
21.248
21.254
21.251
21.253
21.252
21.256
21.253
21.247
21.245
21.247
21.246
21.228
21.203
21.179
21.171
21.176
21.187
21.201
21.212
21.219
21.216
21.201
21.181
21.165
21.161
21.171
21.184
21.192
21.186
21.18
21.174
21.17
21.163
21.163
21.172
21.185
21.193
21.196
21.195
21.192
21.185
21.176
21.164
21.158
21.153
21.153
21.152
21.158
21.168
21.179
21.186
21.188
21.183
21.179
21.172
21.177
21.179
21.181
21.174
21.172
21.175
21.186
21.196
21.203
21.207
21.211
21.215
21.214
21.21
21.205
21.208
21.215
21.225
21.23
21.231
21.226
21.218
21.212
21.207
21.202
21.2
21.202
21.21
21.216
21.224
21.227
21.231
21.227
21.218
21.207
21.203
21.21
21.221
21.229
21.229
21.226
21.225
21.229
21.237
21.242
21.239
21.231
21.225
21.229
21.234
21.241
21.247
21.261
21.274
21.279
21.273
21.265
21.258
21.252
21.244
21.24
21.239
21.237
21.234
21.23
21.232
21.236
21.24
21.24
21.235
21.224
21.213
21.205
21.198
21.189
21.183
21.186
21.201
21.216
21.224
21.219
21.205
21.198
21.195
21.192
21.183
21.17
21.164
21.166
21.174
21.177
21.172
21.16
21.145
21.128
21.114
21.11
21.11
21.11
21.106
21.108
21.115
21.126
21.128
21.122
21.111
21.106
21.103
21.108
21.111
21.114
21.104
21.087
21.066
21.049
21.043
21.043
21.039
21.027
21.005
20.99
20.982
20.986
20.99
20.995
20.996
20.99
20.979
20.965
20.954
20.948
20.951
20.956
20.966
20.976
20.982
20.982
20.975
20.972
20.959
20.946
20.923
20.917
20.915
20.923
20.922
20.927
20.931
20.939
20.941
20.941
20.934
20.927
20.919
20.918
20.92
20.927
20.933
20.937
20.94
20.946
20.949
20.952
20.948
20.944
20.938
20.938
20.94
20.938
20.934
20.926
20.93
20.937
20.95
20.956
20.962
20.968
20.973
20.978
20.976
20.977
20.979
20.983
20.983
20.978
20.978
20.987
21.001
21.009
21.012
21.011
21.016
21.018
21.023
21.024
21.027
21.029
21.03
21.027
21.028
21.032
21.047
21.061
21.072
21.074
21.071
21.075
21.08
21.086
21.086
21.086
21.092
21.102
21.114
21.119
21.123
21.122
21.123
21.125
21.13
21.137
21.146
21.153
21.158
21.155
21.153
21.152
21.164
21.181
21.195
21.197
21.19
21.184
21.187
21.195
21.201
21.203
21.203
21.208
21.215
21.225
21.23
21.23
21.226
21.228
21.235
21.243
21.247
21.249
21.25
21.242
21.231
21.225
21.235
21.25
21.267
21.273
21.275
21.267
21.258
21.247
21.246
21.253
21.266
21.274
21.271
21.264
21.263
21.267
21.274
21.284
21.295
21.306
21.305
21.303
21.296
21.296
21.292
21.286
21.277
21.276
21.282
21.293
21.301
21.304
21.297
21.284
21.266
21.256
21.255
21.256
21.252
21.246
21.25
21.258
21.263
21.259
21.258
21.259
21.259
21.255
21.254
21.258
21.258
21.251
21.241
21.23
21.222
21.217
21.215
21.213
21.208
21.2
21.195
21.197
21.206
21.211
21.201
21.178
21.156
21.143
21.139
21.137
21.137
21.136
21.139
21.145
21.154
21.166
21.168
21.163
21.145
21.132
21.125
21.125
21.122
21.117
21.111
21.115
21.119
21.127
21.123
21.116
21.104
21.095
21.092
21.096
21.102
21.099
21.09
21.077
21.072
21.068
21.065
21.06
21.053
21.042
21.035
21.033
21.04
21.044
21.038
21.025
21.018
21.026
21.047
21.065
21.071
21.062
21.049
21.037
21.028
21.025
21.023
21.022
21.016
21.009
21.009
21.014
21.019
21.022
21.022
21.019
21.016
21.018
21.023
21.023
21.019
21.014
21.021
21.024
21.03
21.024
21.019
21.011
21.01
21.007
21.005
21.001
21.006
21.015
21.022
21.026
21.027
21.03
21.034
21.043
21.046
21.047
21.045
21.049
21.052
21.051
21.043
21.039
21.038
21.038
21.037
21.039
21.045
21.05
21.051
21.046
21.04
21.036
21.029
21.022
21.01
21.002
20.998
20.993
20.989
20.988
20.997
21.007
21.015
21.022
21.024
21.026
21.022
21.023
21.019
21.012
21.002
20.989
20.983
20.978
20.983
20.991
20.997
20.995
20.99
20.988
20.986
20.986
20.977
20.967
20.96
20.965
20.973
20.976
20.973
20.971
20.977
20.988
20.998
20.992
20.976
20.96
20.952
20.949
20.949
20.95
20.95
20.95
20.953
20.965
20.976
20.983
20.98
20.974
20.963
20.954
20.946
20.945
20.944
20.944
20.944
20.947
20.955
20.963
20.973
20.974
20.975
20.971
20.971
20.973
20.979
20.98
20.976
20.97
20.97
20.971
20.968
20.965
20.963
20.967
20.966
20.969
20.973
20.977
20.98
20.981
20.99
21.004
21.02
21.025
21.02
21.009
21.002
20.999
20.999
20.996
20.991
20.984
20.988
21.002
21.019
21.027
21.025
21.021
21.024
21.035
21.052
21.063
21.066
21.062
21.059
21.064
21.071
21.08
21.089
21.099
21.105
21.101
21.091
21.083
21.086
21.096
21.103
21.11
21.114
21.116
21.113
21.109
21.108
21.111
21.115
21.119
21.125
21.132
21.141
21.15
21.16
21.164
21.164
21.155
21.145
21.133
21.128
21.125
21.126
21.126
21.128
21.13
21.133
21.135
21.136
21.134
21.13
21.132
21.137
21.141
21.133
21.123
21.111
21.103
21.1
21.102
21.104
21.101
21.095
21.088
21.085
21.085
21.088
21.094
21.099
21.102
21.097
21.09
21.086
21.085
21.081
21.072
21.061
21.05
21.041
21.039
21.04
21.04
21.037
21.03
21.025
21.023
21.026
21.024
21.017
21.002
20.989
20.984
20.983
20.979
20.967
20.953
20.943
20.942
20.944
20.948
20.952
20.954
20.957
20.959
20.955
20.946
20.934
20.927
20.925
20.928
20.931
20.93
20.924
20.91
20.892
20.879
20.875
20.877
20.877
20.879
20.878
20.877
20.87
20.867
20.869
20.876
20.876
20.876
20.876
20.877
20.874
20.867
20.858
20.845
20.832
20.823
20.817
20.811
20.806
20.804
20.81
20.817
20.819
20.817
20.815
20.818
20.824
20.833
20.836
20.834
20.824
20.815
20.812
20.82
20.833
20.839
20.834
20.82
20.812
20.814
20.821
20.823
20.812
20.798
20.791
20.797
20.813
20.831
20.846
20.856
20.858
20.851
20.843
20.842
20.847
20.852
20.85
20.849
20.85
20.855
20.859
20.858
20.858
20.861
20.866
20.871
20.875
20.882
20.886
20.889
20.889
20.892
20.898
20.906
20.913
20.92
20.925
20.927
20.922
20.915
20.909
20.908
20.911
20.913
20.916
20.919
20.922
20.922
20.925
20.932
20.941
20.943
20.944
20.942
20.946
20.952
20.963
20.972
20.977
20.985
20.988
20.99
20.985
20.989
20.993
20.996
20.985
20.977
20.975
20.98
20.979
20.981
20.986
20.994
20.995
20.991
20.984
20.977
20.973
20.974
20.981
20.991
20.997
21
21.002
21.003
21.002
20.996
20.993
20.997
21.002
21.003
20.996
20.993
20.997
21.006
21.008
21.008
21.005
21.007
21.008
21.01
21.011
21.012
21.015
21.019
21.025
21.024
21.016
21.007
21.005
21.008
21.014
21.019
21.023
21.022
21.018
21.013
21.014
21.021
21.03
21.036
21.041
21.038
21.033
21.025
21.021
21.019
21.02
21.023
21.023
21.02
21.014
21.011
21.014
21.016
21.017
21.018
21.023
21.033
21.039
21.041
21.036
21.03
21.028
21.032
21.042
21.05
21.059
21.064
21.068
21.067
21.063
21.058
21.052
21.042
21.028
21.015
21.002
20.992
20.982
20.977
20.977
20.982
20.991
20.994
20.995
20.992
20.992
20.994
20.994
20.992
20.99
20.985
20.98
20.97
20.965
20.964
20.971
20.972
20.967
20.955
20.946
20.937
20.935
20.937
20.944
20.948
20.941
20.935
20.93
20.933
20.939
20.946
20.946
20.937
20.919
20.902
20.891
20.888
20.885
20.877
20.863
20.847
20.832
20.82
20.812
20.806
20.799
20.789
20.779
20.771
20.771
20.767
20.759
20.748
20.739
20.734
20.728
20.72
20.708
20.696
20.684
20.677
20.676
20.676
20.673
20.665
20.659
20.652
20.641
20.621
20.594
20.568
20.551
20.547
20.548
20.546
20.543
20.538
20.531
20.523
20.516
20.516
20.515
20.514
20.507
20.495
20.477
20.466
20.465
20.473
20.475
20.471
20.46
20.454
20.452
20.452
20.452
20.447
20.437
20.423
20.415
20.414
20.415
20.416
20.409
20.399
20.385
20.376
20.374
20.371
20.367
20.359
20.355
20.35
20.343
20.335
20.333
20.337
20.349
20.361
20.371
20.376
20.378
20.376
20.372
20.367
20.363
20.361
20.357
20.351
20.344
20.343
20.349
20.36
20.372
20.382
20.388
20.393
20.394
20.397
20.395
20.396
20.4
20.407
20.409
20.408
20.405
20.407
20.412
20.417
20.42
20.418
20.415
20.408
20.409
20.417
20.432
20.444
20.449
20.446
20.442
20.441
20.45
20.458
20.465
20.467
20.471
20.48
20.493
20.502
20.504
20.497
20.495
20.497
20.511
20.524
20.539
20.544
20.543
20.537
20.536
20.54
20.544
20.55
20.555
20.564
20.577
20.59
20.602
20.604
20.6
20.593
20.591
20.599
20.613
20.629
20.641
20.648
20.648
20.647
20.646
20.651
20.658
20.668
20.673
20.677
20.676
20.677
20.678
20.684
20.688
20.692
20.694
20.699
20.705
20.708
20.71
20.72
20.735
20.75
20.757
20.761
20.766
20.774
20.782
20.783
20.781
20.774
20.772
20.771
20.775
20.778
20.783
20.789
20.802
20.815
20.827
20.828
20.82
20.807
20.799
20.8
20.806
20.817
20.825
20.837
20.848
20.856
20.854
20.848
20.845
20.845
20.841
20.835
20.83
20.827
20.825
20.822
20.824
20.832
20.842
20.846
20.842
20.84
20.843
20.85
20.849
20.838
20.825
20.815
20.815
20.815
20.817
20.816
20.818
20.817
20.818
20.817
20.819
20.816
20.813
20.814
20.824
20.838
20.848
20.853
20.855
20.856
20.853
20.846
20.836
20.828
20.822
20.822
20.825
20.833
20.839
20.847
20.85
20.853
20.853
20.855
20.861
20.869
20.872
20.862
20.846
20.835
20.832
20.836
20.841
20.843
20.838
20.827
20.819
20.824
20.842
20.86
20.873
20.874
20.875
20.873
20.878
20.878
20.877
20.873
20.877
20.889
20.903
20.912
20.911
20.907
20.904
20.908
20.91
20.911
20.91
20.912
20.919
20.927
20.935
20.937
20.93
20.918
20.908
20.908
20.914
20.917
20.917
20.91
20.904
20.895
20.891
20.886
20.883
20.879
20.878
20.878
20.882
20.887
20.894
20.897
20.903
20.905
20.905
20.897
20.889
20.877
20.87
20.864
20.864
20.865
20.861
20.853
20.836
20.823
20.817
20.816
20.813
20.804
20.799
20.795
20.795
20.791
20.786
20.779
20.764
20.746
20.728
20.719
20.716
20.715
20.711
20.705
20.696
20.686
20.675
20.665
20.653
20.64
20.624
20.607
20.59
20.574
20.561
20.544
20.535
20.527
20.522
20.509
20.492
20.477
20.466
20.461
20.461
20.46
20.45
20.425
20.398
20.381
20.379
20.382
20.385
20.381
20.374
20.361
20.348
20.33
20.317
20.309
20.312
20.314
20.312
20.299
20.281
20.26
20.243
20.23
20.226
20.226
20.232
20.23
20.225
20.216
20.208
20.201
20.195
20.189
20.181
20.172
20.164
20.156
20.151
20.147
20.145
20.147
20.151
20.157
20.157
20.152
20.146
20.14
20.136
20.136
20.141
20.147
20.151
20.15
20.149
20.149
20.152
20.158
20.164
20.17
20.173
20.172
20.17
20.167
20.174
20.193
20.217
20.238
20.248
20.254
20.259
20.267
20.278
20.29
20.306
20.318
20.328
20.338
20.352
20.37
20.388
20.405
20.416
20.429
20.441
20.457
20.47
20.478
20.484
20.485
20.492
20.5
20.519
20.541
20.563
20.578
20.586
20.592
20.605
20.628
20.658
20.682
20.702
20.711
20.721
20.731
20.748
20.766
20.789
20.815
20.842
20.862
20.875
20.887
20.9
20.917
20.93
20.941
20.948
20.963
20.979
20.998
21.015
21.033
21.051
21.071
21.093
21.117
21.138
21.151
21.158
21.166
21.172
21.179
21.178
21.18
21.178
21.18
21.19
21.209
21.231
21.244
21.247
21.245
21.251
21.263
21.273
21.274
21.268
21.265
21.27
21.278
21.282
21.28
21.277
21.275
21.273
21.268
21.264
21.261
21.257
21.252
21.247
21.247
21.252
21.258
21.265
21.264
21.259
21.241
21.222
21.204
21.194
21.184
21.173
21.16
21.151
21.145
21.143
21.139
21.136
21.128
21.12
21.104
21.092
21.08
21.077
21.073
21.067
21.057
21.049
21.042
21.032
21.019
21.004
20.996
20.989
20.978
20.962
20.948
20.939
20.934
20.928
20.916
20.9
20.885
20.877
20.875
20.873
20.866
20.854
20.846
20.843
20.84
20.832
20.816
20.801
20.787
20.776
20.769
20.767
20.766
20.759
20.75
20.736
20.725
20.715
20.708
20.703
20.699
20.7
20.7
20.705
20.705
20.703
20.695
20.689
20.686
20.685
20.68
20.673
20.663
20.653
20.644
20.644
20.651
20.658
20.662
20.659
20.659
20.659
20.663
20.662
20.662
20.655
20.653
20.648
20.651
20.653
20.658
20.661
20.66
20.661
20.659
20.659
20.655
20.659
20.666
20.672
20.67
20.662
20.658
20.66
20.665
20.667
20.665
20.663
20.665
20.675
20.687
20.696
20.697
20.695
20.689
20.685
20.679
20.68
20.681
20.69
20.694
20.698
20.692
20.686
20.678
20.679
20.683
20.687
20.686
20.679
20.672
20.664
20.662
20.665
20.672
20.676
20.672
20.668
20.665
20.664
20.662
20.66
20.663
20.672
20.678
20.676
20.663
20.656
20.656
20.662
20.664
20.659
20.648
20.637
20.632
20.631
20.632
20.634
20.633
20.631
20.628
20.627
20.626
20.624
20.626
20.631
20.633
20.625
20.615
20.609
20.608
20.601
20.586
20.565
20.55
20.548
20.555
20.562
20.562
20.562
20.566
20.578
20.581
20.579
20.569
20.563
20.558
20.554
20.55
20.55
20.554
20.56
20.557
20.545
20.529
20.52
20.518
20.517
20.514
20.51
20.507
20.505
20.497
20.487
20.474
20.465
20.457
20.45
20.445
20.445
20.45
20.456
20.463
20.471
20.484
20.499
20.508
20.508
20.504
20.503
20.507
20.512
20.515
20.512
20.508
20.504
20.506
20.514
20.522
20.532
20.542
20.556
20.565
20.568
20.562
20.556
20.552
20.552
20.559
20.572
20.593
20.61
20.623
20.629
20.636
20.642
20.65
20.656
20.662
20.666
20.669
20.67
20.673
20.679
20.688
20.695
20.703
20.71
20.72
20.729
20.735
20.738
20.738
20.746
20.758
20.78
20.798
20.813
20.818
20.819
20.823
20.835
20.851
20.861
20.869
20.87
20.875
20.881
20.892
20.901
20.901
20.895
20.89
20.892
20.901
20.91
20.918
20.923
20.931
20.943
20.959
20.971
20.977
20.98
20.984
20.983
20.979
20.974
20.972
20.97
20.966
20.959
20.95
20.946
20.943
20.946
20.947
20.95
20.948
20.945
20.943
20.945
20.952
20.954
20.949
20.938
20.928
20.921
20.916
20.907
20.9
20.894
20.893
20.891
20.889
20.884
20.878
20.878
20.88
20.88
20.869
20.85
20.827
20.806
20.789
20.781
20.782
20.791
20.796
20.795
20.784
20.773
20.761
20.752
20.742
20.735
20.726
20.724
20.726
20.727
20.717
20.696
20.677
20.662
20.652
20.64
20.626
20.612
20.601
20.602
20.61
20.617
20.614
20.605
20.598
20.597
20.599
20.599
20.603
20.602
20.601
20.595
20.594
20.587
20.578
20.567
20.562
20.561
20.561
20.556
20.54
20.527
20.528
20.552
20.577
20.593
20.591
20.588
20.586
20.59
20.587
20.584
20.583
20.592
20.599
20.605
20.61
20.615
20.618
20.615
20.614
20.616
20.626
20.638
20.65
20.654
20.651
20.645
20.647
20.659
20.679
20.691
20.697
20.695
20.7
20.709
20.722
20.729
20.732
20.731
20.731
20.733
20.745
20.762
20.779
20.787
20.796
20.802
20.811
20.813
20.813
20.815
20.822
20.832
20.841
20.846
20.85
20.853
20.858
20.864
20.865
20.863
20.859
20.859
20.864
20.876
20.889
20.894
20.885
20.868
20.858
20.86
20.873
20.881
20.88
20.872
20.868
20.872
20.881
20.885
20.885
20.876
20.869
20.855
20.846
20.837
20.838
20.841
20.846
20.849
20.851
20.849
20.843
20.837
20.828
20.821
20.812
20.81
20.808
20.806
20.798
20.787
20.779
20.775
20.777
20.78
20.785
20.788
20.79
20.79
20.785
20.774
20.763
20.752
20.744
20.732
20.717
20.702
20.692
20.686
20.683
20.677
20.669
20.661
20.655
20.648
20.639
20.63
20.626
20.627
20.628
20.626
20.618
20.609
20.599
20.599
20.603
20.614
20.622
20.625
20.619
20.605
20.594
20.587
20.588
20.588
20.586
20.58
20.578
20.575
20.576
20.575
20.572
20.566
20.567
20.577
20.585
20.582
20.571
20.561
20.56
20.564
20.567
20.565
20.563
20.562
20.566
20.573
20.589
20.603
20.613
20.611
20.608
20.604
20.605
20.602
20.608
20.624
20.646
20.653
20.645
20.632
20.627
20.629
20.632
20.636
20.639
20.643
20.644
20.638
20.628
20.618
20.616
20.62
20.628
20.633
20.64
20.646
20.653
20.657
20.655
20.65
20.647
20.653
20.665
20.678
20.684
20.682
20.676
20.673
20.68
20.691
20.703
20.708
20.709
20.707
20.712
20.72
20.732
20.741
20.747
20.748
20.746
20.744
20.742
20.738
20.732
20.726
20.719
20.712
20.707
20.709
20.72
20.735
20.742
20.737
20.723
20.715
20.72
20.731
20.745
20.746
20.745
20.737
20.73
20.719
20.708
20.705
20.708
20.716
20.722
20.729
20.738
20.741
20.735
20.724
20.718
20.717
20.717
20.712
20.706
20.703
20.707
20.71
20.708
20.708
20.712
20.72
20.728
20.731
20.725
20.712
20.705
20.704
20.703
20.695
20.69
20.69
20.689
20.682
20.674
20.67
20.67
20.681
20.69
20.695
20.685
20.679
20.676
20.679
20.676
20.671
20.663
20.659
20.655
20.656
20.658
20.662
20.665
20.668
20.666
20.658
20.648
20.644
20.65
20.653
20.654
20.65
20.648
20.652
20.651
20.652
20.647
20.648
20.645
20.648
20.654
20.668
20.679
20.678
20.666
20.65
20.644
20.639
20.637
20.631
20.637
20.647
20.658
20.658
20.662
20.667
20.674
20.676
20.678
20.685
20.687
20.686
20.682
20.684
20.687
20.69
20.693
20.699
20.704
20.711
20.71
20.712
20.71
20.714
20.716
20.714
20.713
20.718
20.729
20.736
20.737
20.741
20.751
20.761
20.767
20.766
20.762
20.761
20.763
20.768
20.773
20.781
20.794
20.809
20.822
20.827
20.823
20.816
20.813
20.813
20.817
20.818
20.82
20.821
20.825
20.831
20.836
20.842
20.844
20.843
20.837
20.827
20.817
20.811
20.811
20.819
20.827
20.83
20.829
20.828
20.834
20.839
20.838
20.829
20.819
20.818
20.821
20.828
20.828
20.829
20.827
20.83
20.829
20.828
20.824
20.82
20.822
20.821
20.817
20.801
20.788
20.78
20.782
20.783
20.78
20.77
20.762
20.755
20.754
20.758
20.765
20.768
20.76
20.749
20.737
20.731
20.719
20.713
20.704
20.708
20.715
20.725
20.728
20.729
20.728
20.725
20.718
20.711
20.704
20.7
20.7
20.704
20.703
20.697
20.685
20.672
20.662
20.66
20.667
20.673
20.674
20.664
20.659
20.653
20.655
20.658
20.664
20.668
20.67
20.674
20.679
20.68
20.682
20.683
20.682
20.676
20.667
20.66
20.657
20.655
20.66
20.669
20.677
20.676
20.671
20.67
20.673
20.683
20.694
20.706
20.715
20.719
20.722
20.724
20.73
20.724
20.716
20.709
20.714
20.726
20.736
20.739
20.733
20.728
20.73
20.738
20.745
20.747
20.75
20.75
20.749
20.75
20.753
20.756
20.756
20.759
20.766
20.773
20.779
20.784
20.786
20.787
20.779
20.77
20.759
20.759
20.765
20.774
20.786
20.798
20.807
20.806
20.801
20.796
20.788
20.776
20.762
20.755
20.763
20.778
20.797
20.81
20.821
20.825
20.82
20.806
20.786
20.774
20.771
20.778
20.783
20.788
20.785
20.782
20.779
20.779
20.783
20.788
20.789
20.788
20.783
20.779
20.775
20.774
20.768
20.762
20.752
20.747
20.742
20.74
20.732
20.724
20.716
20.715
20.713
20.715
20.719
20.729
20.735
20.737
20.732
20.722
20.716
20.713
20.711
20.706
20.697
20.69
20.685
20.684
20.686
20.689
20.692
20.691
20.685
20.682
20.679
20.686
20.692
20.699
20.696
20.69
20.686
20.685
20.688
20.69
20.686
20.674
20.658
20.654
20.664
20.681
20.688
20.688
20.682
20.677
20.674
20.675
20.681
20.687
20.689
20.686
20.685
20.687
20.693
20.696
20.698
20.701
20.706
20.712
20.712
20.713
20.717
20.723
20.726
20.721
20.716
20.713
20.721
20.732
20.746
20.756
20.764
20.765
20.761
20.758
20.758
20.761
20.761
20.765
20.774
20.789
20.798
20.798
20.786
20.775
20.771
20.781
20.794
20.805
20.811
20.815
20.821
20.825
20.83
20.838
20.851
20.858
20.856
20.847
20.841
20.838
20.839
20.842
20.849
20.853
20.854
20.849
20.839
20.828
20.82
20.818
20.827
20.843
20.857
20.862
20.861
20.861
20.864
20.872
20.877
20.883
20.887
20.896
20.902
20.905
20.897
20.891
20.885
20.885
20.884
20.884
20.885
20.889
20.896
20.901
20.902
20.9
20.894
20.888
20.88
20.875
20.872
20.873
20.873
20.875
20.872
20.87
20.866
20.864
20.864
20.868
20.875
20.878
20.876
20.871
20.867
20.871
20.877
20.886
20.886
20.881
20.869
20.86
20.852
20.847
20.845
20.846
20.848
20.854
20.862
20.875
20.884
20.89
20.893
20.897
20.898
20.899
20.895
20.888
20.876
20.867
20.865
20.867
20.869
20.865
20.862
20.861
20.866
20.876
20.887
20.893
20.891
20.889
20.889
20.896
20.902
20.907
20.907
20.906
20.902
20.898
20.898
20.898
20.898
20.896
20.9
20.9
20.903
20.899
20.903
20.905
20.907
20.903
20.901
20.902
20.91
20.918
20.924
20.929
20.938
20.945
20.951
20.947
20.946
20.946
20.956
20.964
20.973
20.978
20.982
20.983
20.986
20.99
20.995
21.002
21.004
21
20.986
20.974
20.972
20.983
20.998
21.014
21.021
21.022
21.02
21.023
21.027
21.031
21.034
21.039
21.041
21.042
21.039
21.039
21.038
21.036
21.031
21.031
21.033
21.034
21.031
21.031
21.042
21.057
21.071
21.076
21.075
21.073
21.075
21.075
21.07
21.065
21.065
21.074
21.076
21.07
21.059
21.056
21.061
21.07
21.078
21.079
21.075
21.067
21.063
21.062
21.065
21.068
21.073
21.075
21.073
21.064
21.053
21.045
21.05
21.063
21.085
21.099
21.108
21.107
21.103
21.098
21.092
21.088
21.088
21.091
21.093
21.084
21.069
21.053
21.048
21.055
21.066
21.078
21.08
21.079
21.078
21.081
21.087
21.089
21.088
21.088
21.089
21.087
21.08
21.071
21.068
21.071
21.081
21.088
21.085
21.075
21.069
21.069
21.072
21.073
21.072
21.074
21.075
21.074
21.07
21.068
21.07
21.072
21.072
21.067
21.06
21.061
21.067
21.075
21.077
21.07
21.067
21.072
21.085
21.092
21.086
21.074
21.063
21.063
21.065
21.07
21.075
21.085
21.093
21.094
21.09
21.087
21.088
21.086
21.085
21.083
21.089
21.09
21.087
21.079
21.076
21.077
21.081
21.084
21.089
21.095
21.106
21.118
21.128
21.126
21.118
21.109
21.11
21.107
21.104
21.097
21.094
21.091
21.091
21.088
21.089
21.093
21.106
21.12
21.13
21.136
21.138
21.138
21.129
21.117
21.109
21.109
21.118
21.125
21.13
21.124
21.117
21.108
21.104
21.101
21.099
21.098
21.103
21.113
21.123
21.13
21.132
21.14
21.146
21.147
21.139
21.131
21.126
21.127
21.124
21.12
21.112
21.109
21.106
21.108
21.114
21.118
21.117
21.108
21.103
21.104
21.111
21.114
21.111
21.105
21.101
21.097
21.091
21.08
21.071
21.064
21.06
21.057
21.061
21.07
21.081
21.077
21.064
21.044
21.031
21.023
21.025
21.028
21.032
21.036
21.04
21.041
21.037
21.031
21.02
21.009
21.002
21.005
21.014
21.016
21.011
20.998
20.989
20.983
20.986
20.995
21.005
21.007
21.001
20.993
20.985
20.972
20.956
20.938
20.93
20.928
20.931
20.932
20.932
20.933
20.935
20.936
20.939
20.94
20.945
20.948
20.954
20.954
20.946
20.93
20.919
20.918
20.919
20.92
20.918
20.92
20.918
20.916
20.912
20.913
20.916
20.917
20.915
20.91
20.907
20.908
20.91
20.914
20.917
20.927
20.937
20.945
20.943
20.934
20.927
20.922
20.918
20.91
20.902
20.898
20.901
20.906
20.911
20.915
20.917
20.92
20.92
20.916
20.911
20.906
20.907
20.909
20.917
20.924
20.933
20.937
20.939
20.94
20.938
20.931
20.923
20.917
20.915
20.912
20.91
20.91
20.915
20.927
20.939
20.948
20.945
20.933
20.922
20.919
20.923
20.925
20.927
20.928
20.93
20.933
20.941
20.955
20.972
20.984
20.982
20.975
20.97
20.971
20.98
20.992
21.002
21.001
20.995
20.99
20.996
21.007
21.02
21.025
21.024
21.019
21.016
21.015
21.015
21.013
21.015
21.023
21.036
21.045
21.052
21.052
21.052
21.048
21.051
21.059
21.07
21.075
21.075
21.074
21.069
21.059
21.046
21.039
21.034
21.032
21.033
21.039
21.049
21.063
21.077
21.088
21.093
21.095
21.099
21.101
21.101
21.096
21.095
21.095
21.099
21.096
21.096
21.092
21.088
21.082
21.076
21.077
21.078
21.079
21.078
21.073
21.073
21.073
21.079
21.083
21.089
21.093
21.094
21.089
21.081
21.073
21.067
21.06
21.054
21.053
21.057
21.065
21.066
21.062
21.054
21.051
21.055
21.071
21.086
21.09
21.08
21.067
21.065
21.069
21.075
21.073
21.071
21.072
21.078
21.086
21.087
21.084
21.074
21.063
21.054
21.053
21.057
21.066
21.07
21.072
21.069
21.069
21.073
21.081
21.086
21.086
21.077
21.068
21.064
21.071
21.078
21.083
21.084
21.082
21.076
21.066
21.058
21.053
21.052
21.051
21.053
21.056
21.059
21.059
21.055
21.045
21.031
21.017
21.007
21.005
21.009
21.014
21.021
21.023
21.02
21.01
20.998
20.991
20.99
20.995
21
21
20.996
20.992
20.995
20.998
20.999
20.994
20.984
20.973
20.959
20.95
20.942
20.94
20.936
20.934
20.927
20.924
20.921
20.921
20.919
20.912
20.902
20.891
20.883
20.878
20.878
20.876
20.867
20.853
20.844
20.841
20.841
20.837
20.831
20.827
20.831
20.833
20.834
20.828
20.824
20.82
20.816
20.811
20.802
20.797
20.798
20.803
20.807
20.806
20.805
20.805
20.807
20.802
20.79
20.776
20.771
20.771
20.772
20.769
20.767
20.768
20.767
20.765
20.757
20.752
20.748
20.75
20.753
20.755
20.755
20.748
20.736
20.726
20.722
20.724
20.726
20.725
20.72
20.717
20.718
20.727
20.737
20.747
20.754
20.759
20.76
20.757
20.75
20.745
20.742
20.742
20.738
20.734
20.732
20.731
20.727
20.722
20.72
20.724
20.727
20.729
20.725
20.722
20.718
20.716
20.716
20.719
20.724
20.731
20.74
20.75
20.76
20.767
20.772
20.771
20.772
20.772
20.773
20.768
20.759
20.747
20.739
20.74
20.748
20.76
20.765
20.766
20.769
20.777
20.787
20.793
20.795
20.792
20.788
20.786
20.792
20.801
20.814
20.822
20.829
20.834
20.836
20.835
20.83
20.825
20.825
20.831
20.837
20.839
20.837
20.835
20.834
20.833
20.833
20.835
20.842
20.854
20.872
20.889
20.905
20.913
20.919
20.913
20.907
20.896
20.89
20.888
20.893
20.905
20.921
20.933
20.939
20.94
20.942
20.943
20.944
20.941
20.94
20.941
20.948
20.955
20.958
20.957
20.951
20.954
20.959
20.967
20.966
20.967
20.975
20.996
21.017
21.023
21.013
20.994
20.984
20.984
20.996
21.01
21.022
21.03
21.034
21.033
21.028
21.024
21.028
21.034
21.038
21.038
21.042
21.052
21.061
21.07
21.071
21.075
21.074
21.073
21.069
21.072
21.077
21.086
21.089
21.091
21.097
21.101
21.103
21.095
21.089
21.085
21.084
21.082
21.084
21.088
21.092
21.095
21.097
21.099
21.101
21.102
21.101
21.099
21.097
21.097
21.104
21.118
21.131
21.137
21.139
21.144
21.155
21.159
21.155
21.144
21.136
21.135
21.144
21.163
21.178
21.189
21.188
21.182
21.171
21.161
21.159
21.166
21.18
21.191
21.197
21.192
21.18
21.164
21.152
21.149
21.151
21.146
21.136
21.125
21.127
21.131
21.135
21.134
21.139
21.148
21.159
21.167
21.171
21.169
21.167
21.164
21.163
21.157
21.153
21.155
21.166
21.173
21.171
21.156
21.146
21.146
21.156
21.16
21.156
21.151
21.149
21.149
21.148
21.144
21.137
21.129
21.127
21.128
21.128
21.132
21.139
21.146
21.148
21.147
21.148
21.146
21.143
21.135
21.129
21.121
21.116
21.103
21.091
21.08
21.084
21.09
21.097
21.099
21.101
21.099
21.094
21.091
21.089
21.092
21.092
21.092
21.086
21.081
21.076
21.072
21.067
21.056
21.047
21.037
21.037
21.039
21.047
21.051
21.054
21.053
21.052
21.051
21.052
21.048
21.042
21.034
21.03
21.027
21.025
21.023
21.023
21.022
21.014
21.004
20.997
20.997
20.997
20.998
20.998
21.002
21.001
20.998
20.987
20.975
20.962
20.955
20.956
20.963
20.973
20.983
20.986
20.981
20.97
20.967
20.972
20.985
20.992
20.993
20.988
20.989
20.99
20.988
20.978
20.972
20.962
20.957
20.949
20.949
20.95
20.954
20.954
20.952
20.947
20.94
20.93
20.922
20.915
20.913
20.917
20.925
20.931
20.93
20.926
20.928
20.935
20.951
20.962
20.971
20.964
20.954
20.937
20.928
20.921
20.919
20.918
20.918
20.917
20.917
20.918
20.919
20.92
20.918
20.914
20.908
20.904
20.904
20.911
20.92
20.931
20.94
20.947
20.951
20.951
20.946
20.94
20.934
20.933
20.925
20.916
20.909
20.915
20.928
20.936
20.938
20.936
20.94
20.945
20.951
20.95
20.947
20.945
20.947
20.946
20.947
20.945
20.943
20.936
20.935
20.943
20.96
20.968
20.973
20.969
20.972
20.971
20.974
20.974
20.976
20.975
20.979
20.978
20.978
20.973
20.971
20.965
20.962
20.958
20.959
20.96
20.966
20.977
20.986
20.989
20.983
20.978
20.974
20.971
20.965
20.961
20.96
20.967
20.979
20.988
20.991
20.989
20.984
20.977
20.968
20.961
20.957
20.961
20.974
20.993
21.002
20.999
20.988
20.979
20.975
20.972
20.969
20.963
20.964
20.971
20.981
20.983
20.981
20.98
20.98
20.979
20.98
20.985
20.993
20.996
20.993
20.991
20.989
20.986
20.98
20.975
20.976
20.98
20.984
20.983
20.982
20.98
20.981
20.984
20.986
20.986
20.98
20.977
20.979
20.988
20.997
20.999
20.993
20.982
20.973
20.969
20.965
20.962
20.963
20.972
20.985
20.998
21.007
21.01
21.012
21.01
21.008
21.003
21
21.002
21.005
21.01
21.009
21.005
20.997
20.99
20.985
20.981
20.98
20.978
20.979
20.977
20.975
20.974
20.974
20.974
20.967
20.964
20.963
20.965
20.96
20.95
20.945
20.948
20.954
20.959
20.955
20.949
20.94
20.944
20.954
20.966
20.973
20.974
20.975
20.969
20.959
20.946
20.939
20.941
20.949
20.956
20.958
20.956
20.955
20.958
20.959
20.957
20.95
20.946
20.945
20.947
20.944
20.937
20.931
20.929
20.93
20.925
20.916
20.908
20.907
20.913
20.92
20.924
20.919
20.907
20.888
20.871
20.859
20.856
20.856
20.866
20.878
20.894
20.901
20.904
20.904
20.903
20.902
20.894
20.887
20.885
20.89
20.892
20.888
20.886
20.883
20.885
20.88
20.874
20.867
20.865
20.867
20.871
20.873
20.876
20.877
20.879
20.88
20.883
20.888
20.891
20.886
20.873
20.852
20.838
20.829
20.832
20.835
20.839
20.838
20.836
20.832
20.83
20.833
20.836
20.833
20.821
20.813
20.82
20.834
20.839
20.826
20.81
20.802
20.809
20.819
20.825
20.825
20.827
20.832
20.836
20.835
20.831
20.826
20.822
20.817
20.812
20.809
20.81
20.804
20.792
20.782
20.784
20.792
20.8
20.804
20.808
20.811
20.814
20.813
20.806
20.791
20.779
20.772
20.774
20.775
20.777
20.776
20.783
20.793
20.803
20.8
20.791
20.787
20.796
20.811
20.82
20.82
20.811
20.8
20.788
20.785
20.788
20.798
20.799
20.799
20.798
20.798
20.798
20.796
20.796
20.79
20.784
20.776
20.776
20.778
20.782
20.79
20.803
20.816
20.823
20.826
20.825
20.824
20.818
20.811
20.806
20.804
20.803
20.802
20.801
20.805
20.81
20.814
20.814
20.811
20.807
20.801
20.792
20.787
20.785
20.791
20.798
20.807
20.807
20.805
20.804
20.809
20.816
20.815
20.813
20.805
20.805
20.802
20.806
20.808
20.81
20.81
20.809
20.813
20.815
20.813
20.803
20.791
20.778
20.77
20.771
20.779
20.786
20.789
20.792
20.794
20.795
20.79
20.789
20.791
20.796
20.795
20.793
20.786
20.783
20.78
20.778
20.777
20.78
20.786
20.792
20.795
20.799
20.804
20.81
20.814
20.815
20.814
20.813
20.814
20.814
20.809
20.801
20.795
20.797
20.804
20.811
20.814
20.814
20.809
20.801
20.792
20.785
20.787
20.795
20.807
20.812
20.811
20.802
20.79
20.779
20.777
20.782
20.788
20.792
20.795
20.795
20.794
20.786
20.779
20.773
20.774
20.775
20.773
20.769
20.771
20.777
20.784
20.787
20.791
20.794
20.797
20.799
20.801
20.795
20.786
20.774
20.772
20.775
20.784
20.789
20.792
20.785
20.778
20.768
20.764
20.766
20.769
20.775
20.775
20.777
20.773
20.77
20.761
20.752
20.745
20.741
20.737
20.738
20.741
20.747
20.753
20.761
20.767
20.772
20.778
20.783
20.788
20.793
20.802
20.81
20.806
20.789
20.763
20.743
20.731
20.726
20.724
20.728
20.732
20.732
20.734
20.742
20.752
20.756
20.756
20.754
20.757
20.763
20.771
20.775
20.77
20.759
20.74
20.728
20.725
20.736
20.743
20.741
20.738
20.736
20.743
20.747
20.75
20.755
20.753
20.749
20.737
20.727
20.721
20.72
20.719
20.719
20.716
20.718
20.725
20.736
20.746
20.747
20.741
20.732
20.728
20.732
20.742
20.755
20.758
20.75
20.741
20.735
20.734
20.734
20.739
20.742
20.74
20.725
20.715
20.709
20.703
20.693
20.679
20.678
20.679
20.69
20.701
20.715
20.719
20.712
20.705
20.703
20.715
20.723
20.731
20.728
20.726
20.724
20.721
20.719
20.718
20.724
20.726
20.725
20.718
20.717
20.721
20.73
20.735
20.734
20.731
20.731
20.735
20.733
20.732
20.729
20.729
20.727
20.724
20.717
20.711
20.712
20.725
20.745
20.757
20.755
20.745
20.737
20.733
20.729
20.72
20.708
20.701
20.7
20.708
20.716
20.72
20.719
20.716
20.711
20.706
20.704
20.701
20.697
20.692
20.698
20.711
20.725
20.73
20.732
20.73
20.729
20.729
20.733
20.733
20.734
20.735
20.741
20.745
20.743
20.735
20.723
20.714
20.716
20.723
20.732
20.736
20.737
20.744
20.751
20.762
20.766
20.764
20.754
20.739
20.726
20.718
20.718
20.722
20.728
20.735
20.745
20.753
20.76
20.764
20.766
20.762
20.754
20.747
20.747
20.75
20.754
20.756
20.764
20.772
20.777
20.778
20.779
20.784
20.786
20.783
20.777
20.775
20.776
20.781
20.786
20.789
20.789
20.787
20.787
20.789
20.79
20.788
20.787
20.784
20.781
20.777
20.778
20.783
20.791
20.8
20.806
20.807
20.8
20.792
20.784
20.779
20.778
20.781
20.784
20.786
20.78
20.775
20.774
20.778
20.782
20.779
20.772
20.764
20.763
20.767
20.772
20.775
20.774
20.777
20.777
20.775
20.768
20.764
20.764
20.764
20.761
20.754
20.75
20.749
20.75
20.752
20.755
20.758
20.758
20.752
20.746
20.741
20.742
20.75
20.759
20.769
20.771
20.771
20.762
20.755
20.749
20.748
20.746
20.737
20.727
20.717
20.711
20.709
20.712
20.714
20.715
20.713
20.71
20.705
20.705
20.708
20.716
20.724
20.733
20.739
20.744
20.744
20.745
20.745
20.744
20.741
20.733
20.726
20.72
20.719
20.719
20.72
20.724
20.731
20.735
20.736
20.734
20.732
20.73
20.733
20.736
20.736
20.728
20.724
20.723
20.726
20.726
20.723
20.719
20.713
20.707
20.703
20.703
20.703
20.701
20.7
20.701
20.703
20.703
20.703
20.704
20.708
20.711
20.71
20.708
20.704
20.702
20.699
20.699
20.702
20.709
20.716
20.72
20.718
20.713
20.707
20.705
20.707
20.716
20.725
20.732
20.735
20.734
20.73
20.726
20.725
20.726
20.728
20.728
20.729
20.731
20.73
20.727
20.719
20.711
20.7
20.694
20.696
20.705
20.715
20.722
20.724
20.724
20.722
20.722
20.722
20.723
20.721
20.72
20.719
20.72
20.719
20.711
20.699
20.687
20.681
20.68
20.683
20.687
20.689
20.69
20.694
20.7
20.707
20.709
20.707
20.7
20.693
20.689
20.688
20.687
20.686
20.684
20.682
20.677
20.673
20.679
20.692
20.708
20.716
20.718
20.718
20.716
20.716
20.715
20.716
20.716
20.714
20.704
20.694
20.687
20.692
20.701
20.71
20.717
20.718
20.712
20.705
20.7
20.698
20.695
20.692
20.689
20.687
20.69
20.696
20.702
20.704
20.703
20.703
20.706
20.71
20.713
20.711
20.709
20.709
20.71
20.712
20.713
20.714
20.716
20.715
20.715
20.715
20.717
20.717
20.717
20.72
20.725
20.734
20.74
20.745
20.75
20.753
20.75
20.742
20.732
20.726
20.723
20.722
20.722
20.725
20.728
20.733
20.735
20.738
20.74
20.74
20.74
20.741
20.742
20.741
20.734
20.723
20.713
20.708
20.708
20.714
20.723
20.732
20.739
20.744
20.745
20.743
20.74
20.741
20.742
20.746
20.748
20.749
20.751
20.757
20.766
20.768
20.765
20.757
20.752
20.749
20.745
20.742
20.738
20.742
20.745
20.745
20.741
20.741
20.747
20.752
20.754
20.754
20.754
20.753
20.75
20.746
20.748
20.751
20.757
20.753
20.75
20.745
20.748
20.748
20.745
20.738
20.739
20.747
20.758
20.765
20.768
20.763
20.757
20.753
20.754
20.754
20.751
20.746
20.742
20.741
20.74
20.743
20.741
20.74
20.733
20.733
20.732
20.737
20.741
20.746
20.746
20.745
20.741
20.739
20.733
20.728
20.724
20.728
20.732
20.738
20.737
20.738
20.738
20.741
20.741
20.737
20.731
20.723
20.715
20.711
20.711
20.716
20.717
20.716
20.712
20.708
20.705
20.706
20.708
20.71
20.711
20.708
20.703
20.697
20.694
20.694
20.697
20.698
20.696
20.691
20.686
20.686
20.689
20.692
20.69
20.686
20.681
20.677
20.675
20.677
20.684
20.687
20.689
20.686
20.683
20.677
20.676
20.678
20.684
20.687
20.686
20.688
20.693
20.697
20.695
20.689
20.682
20.68
20.684
20.692
20.7
20.704
20.706
20.713
20.721
20.724
20.716
20.7
20.682
20.669
20.665
20.67
20.681
20.691
20.7
20.703
20.707
20.71
20.716
20.72
20.723
20.726
20.727
20.723
20.72
20.721
20.725
20.725
20.722
20.72
20.72
20.72
20.718
20.717
20.719
20.724
20.731
20.734
20.737
20.737
20.74
20.743
20.749
20.75
20.75
20.749
20.754
20.76
20.765
20.762
20.756
20.754
20.761
20.776
20.789
20.798
20.801
20.804
20.803
20.8
20.793
20.785
20.779
20.778
20.781
20.786
20.793
20.8
20.807
20.816
20.823
20.828
20.829
20.827
20.823
20.822
20.821
20.822
20.821
20.825
20.83
20.84
20.848
20.855
20.858
20.855
20.851
20.851
20.854
20.857
20.854
20.852
20.85
20.851
20.855
20.863
20.876
20.883
20.888
20.887
20.887
20.886
20.886
20.889
20.895
20.899
20.9
20.898
20.898
20.896
20.893
20.89
20.889
20.892
20.895
20.902
20.904
20.913
20.92
20.932
20.939
20.944
20.946
20.949
20.952
20.957
20.962
20.967
20.97
20.972
20.973
20.974
20.972
20.971
20.973
20.978
20.982
20.982
20.981
20.98
20.978
20.977
20.979
20.984
20.989
20.991
20.997
21.005
21.016
21.024
21.026
21.027
21.028
21.033
21.037
21.043
21.044
21.04
21.032
21.028
21.03
21.034
21.036
21.035
21.039
21.052
21.074
21.091
21.097
21.09
21.086
21.091
21.102
21.107
21.106
21.105
21.102
21.098
21.096
21.096
21.1
21.105
21.108
21.108
21.108
21.115
21.127
21.137
21.137
21.132
21.128
21.132
21.14
21.144
21.142
21.137
21.135
21.14
21.147
21.155
21.16
21.162
21.164
21.167
21.172
21.177
21.181
21.18
21.18
21.177
21.172
21.17
21.173
21.184
21.193
21.197
21.195
21.192
21.192
21.193
21.195
21.194
21.188
21.187
21.188
21.195
21.2
21.201
21.202
21.205
21.212
21.216
21.213
21.206
21.2
21.195
21.19
21.183
21.178
21.174
21.177
21.18
21.181
21.181
21.186
21.199
21.206
21.204
21.193
21.182
21.175
21.174
21.181
21.196
21.214
21.222
21.219
21.212
21.206
21.204
21.201
21.199
21.194
21.191
21.189
21.192
21.196
21.2
21.202
21.202
21.204
21.205
21.204
21.201
21.196
21.193
21.192
21.191
21.187
21.183
21.18
21.182
21.187
21.193
21.19
21.18
21.168
21.16
21.16
21.164
21.169
21.168
21.164
21.155
21.154
21.152
21.159
21.163
21.168
21.172
21.178
21.185
21.191
21.194
21.19
21.183
21.175
21.171
21.171
21.172
21.173
21.175
21.181
21.185
21.183
21.176
21.166
21.16
21.156
21.152
21.147
21.142
21.135
21.135
21.138
21.145
21.148
21.151
21.157
21.165
21.167
21.164
21.16
21.161
21.165
21.167
21.166
21.16
21.158
21.159
21.163
21.16
21.15
21.143
21.147
21.155
21.16
21.161
21.164
21.168
21.17
21.165
21.159
21.158
21.165
21.175
21.18
21.185
21.192
21.2
21.204
21.202
21.199
21.192
21.18
21.163
21.151
21.15
21.163
21.178
21.185
21.182
21.173
21.165
21.158
21.153
21.145
21.14
21.138
21.14
21.142
21.144
21.149
21.155
21.163
21.168
21.17
21.163
21.154
21.145
21.144
21.152
21.165
21.178
21.183
21.183
21.177
21.171
21.165
21.162
21.162
21.167
21.171
21.173
21.172
21.173
21.179
21.188
21.192
21.194
21.193
21.196
21.196
21.194
21.188
21.18
21.175
21.176
21.181
21.189
21.196
21.198
21.198
21.194
21.193
21.19
21.189
21.186
21.183
21.177
21.173
21.174
21.181
21.189
21.195
21.197
21.198
21.2
21.2
21.2
21.202
21.207
21.213
21.217
21.219
21.218
21.217
21.221
21.226
21.229
21.224
21.22
21.222
21.227
21.23
21.227
21.224
21.224
21.224
21.217
21.205
21.193
21.186
21.181
21.182
21.189
21.201
21.209
21.214
21.21
21.206
21.201
21.2
21.196
21.188
21.183
21.186
21.193
21.199
21.208
21.217
21.219
21.211
21.199
21.192
21.19
21.19
21.188
21.187
21.191
21.193
21.192
21.184
21.178
21.176
21.181
21.188
21.196
21.209
21.221
21.23
21.227
21.221
21.215
21.21
21.209
21.206
21.206
21.203
21.2
21.195
21.192
21.19
21.187
21.182
21.18
21.181
21.187
21.19
21.191
21.19
21.19
21.184
21.171
21.158
21.15
21.15
21.149
21.15
21.151
21.151
21.15
21.148
21.149
21.147
21.145
21.144
21.144
21.148
21.147
21.145
21.14
21.139
21.142
21.148
21.16
21.165
21.163
21.151
21.141
21.134
21.134
21.135
21.136
21.132
21.126
21.122
21.122
21.121
21.117
21.104
21.09
21.079
21.079
21.08
21.076
21.065
21.059
21.066
21.076
21.08
21.074
21.068
21.066
21.067
21.065
21.057
21.046
21.037
21.032
21.03
21.032
21.037
21.042
21.042
21.042
21.037
21.036
21.032
21.027
21.022
21.019
21.014
21.007
21.002
21
20.997
20.989
20.98
20.974
20.974
20.976
20.982
20.985
20.987
20.987
20.991
20.998
21.001
20.993
20.981
20.973
20.976
20.983
20.988
20.99
20.984
20.973
20.956
20.944
20.936
20.936
20.94
20.948
20.954
20.956
20.956
20.961
20.967
20.973
20.965
20.953
20.938
20.93
20.93
20.933
20.936
20.935
20.934
20.933
20.932
20.929
20.927
20.927
20.933
20.936
20.935
20.93
20.927
20.93
20.937
20.945
20.948
20.946
20.939
20.934
20.931
20.931
20.929
20.926
20.927
20.933
20.938
20.938
20.932
20.922
20.915
20.909
20.908
20.913
20.922
20.933
20.94
20.939
20.931
20.921
20.913
20.911
20.918
20.924
20.93
20.928
20.929
20.931
20.934
20.934
20.934
20.937
20.941
20.942
20.94
20.934
20.93
20.925
20.918
20.906
20.896
20.893
20.902
20.916
20.927
20.93
20.927
20.925
20.925
20.926
20.926
20.927
20.926
20.924
20.923
20.927
20.929
20.929
20.926
20.922
20.921
20.921
20.928
20.934
20.94
20.939
20.934
20.928
20.928
20.931
20.933
20.93
20.923
20.917
20.915
20.919
20.926
20.929
20.926
20.921
20.919
20.921
20.924
20.924
20.919
20.91
20.907
20.91
20.919
20.926
20.933
20.938
20.94
20.941
20.937
20.931
20.922
20.916
20.914
20.915
20.914
20.909
20.905
20.904
20.91
20.921
20.932
20.934
20.931
20.923
20.918
20.914
20.913
20.911
20.908
20.908
20.909
20.914
20.92
20.924
20.926
20.924
20.921
20.92
20.922
20.924
20.931
20.933
20.934
20.932
20.929
20.924
20.923
20.923
20.923
20.919
20.916
20.917
20.92
20.921
20.917
20.909
20.897
20.888
20.885
20.89
20.896
20.903
20.907
20.915
20.921
20.93
20.935
20.94
20.944
20.951
20.954
20.951
20.945
20.938
20.933
20.925
20.915
20.908
20.912
20.919
20.919
20.907
20.892
20.887
20.891
20.9
20.907
20.907
20.904
20.902
20.909
20.921
20.932
20.933
20.928
20.921
20.916
20.915
20.914
20.911
20.909
20.909
20.909
20.908
20.905
20.906
20.91
20.917
20.918
20.912
20.903
20.899
20.901
20.911
20.922
20.93
20.929
20.921
20.91
20.904
20.902
20.901
20.898
20.892
20.886
20.886
20.889
20.898
20.908
20.919
20.922
20.92
20.912
20.906
20.9
20.897
20.889
20.879
20.869
20.869
20.878
20.889
20.894
20.894
20.89
20.884
20.878
20.877
20.875
20.875
20.869
20.86
20.852
20.848
20.851
20.853
20.856
20.858
20.862
20.865
20.869
20.867
20.864
20.863
20.867
20.872
20.874
20.87
20.868
20.867
20.87
20.871
20.872
20.871
20.868
20.862
20.858
20.851
20.843
20.834
20.834
20.84
20.847
20.844
20.841
20.84
20.845
20.85
20.851
20.846
20.837
20.832
20.834
20.84
20.845
20.841
20.829
20.818
20.816
20.819
20.822
20.821
20.821
20.827
20.838
20.845
20.84
20.832
20.826
20.826
20.826
20.827
20.826
20.828
20.831
20.836
20.839
20.835
20.831
20.828
20.827
20.822
20.813
20.806
20.802
20.805
20.81
20.817
20.82
20.822
20.822
20.82
20.817
20.813
20.811
20.81
20.807
20.802
20.799
20.798
20.802
20.805
20.81
20.813
20.817
20.812
20.804
20.798
20.8
20.805
20.807
20.808
20.808
20.807
20.803
20.797
20.793
20.792
20.796
20.797
20.796
20.793
20.794
20.795
20.798
20.799
20.802
20.8
20.799
20.798
20.802
20.804
20.805
20.803
20.802
20.802
20.803
20.803
20.8
20.796
20.791
20.794
20.801
20.806
20.806
20.801
20.798
20.798
20.801
20.807
20.813
20.815
20.813
20.809
20.809
20.813
20.817
20.817
20.815
20.814
20.818
20.824
20.824
20.817
20.803
20.795
20.796
20.808
20.819
20.823
20.818
20.808
20.805
20.804
20.804
20.801
20.799
20.802
20.8
20.795
20.787
20.787
20.791
20.797
20.798
20.8
20.805
20.814
20.82
20.819
20.812
20.805
20.801
20.797
20.8
20.808
20.819
20.822
20.818
20.812
20.812
20.815
20.814
20.81
20.804
20.801
20.798
20.797
20.795
20.791
20.788
20.784
20.781
20.776
20.77
20.769
20.774
20.784
20.792
20.797
20.797
20.791
20.779
20.766
20.755
20.752
20.758
20.768
20.773
20.77
20.765
20.763
20.764
20.766
20.772
20.782
20.793
20.795
20.79
20.78
20.774
20.771
20.772
20.77
20.771
20.773
20.776
20.774
20.769
20.769
20.776
20.788
20.793
20.789
20.778
20.764
20.754
20.747
20.743
20.735
20.728
20.721
20.723
20.73
20.741
20.749
20.753
20.755
20.755
20.755
20.753
20.754
20.752
20.749
20.745
20.744
20.748
20.751
20.756
20.76
20.763
20.761
20.758
20.759
20.762
20.767
20.769
20.769
20.767
20.764
20.762
20.759
20.759
20.764
20.772
20.773
20.762
20.745
20.732
20.729
20.731
20.732
20.728
20.724
20.724
20.731
20.74
20.752
20.764
20.775
20.777
20.769
20.758
20.749
20.748
20.748
20.747
20.744
20.743
20.738
20.734
20.727
20.72
20.71
20.706
20.708
20.718
20.73
20.744
20.755
20.762
20.762
20.763
20.765
20.766
20.767
20.767
20.772
20.777
20.779
20.775
20.766
20.755
20.746
20.742
20.738
20.739
20.741
20.748
20.751
20.751
20.75
20.751
20.757
20.759
20.757
20.748
20.74
20.733
20.732
20.733
20.737
20.738
20.735
20.729
20.723
20.719
20.714
20.718
20.731
20.751
20.766
20.77
20.762
20.747
20.736
20.733
20.734
20.738
20.741
20.746
20.751
20.751
20.748
20.74
20.735
20.731
20.73
20.732
20.738
20.744
20.746
20.745
20.743
20.737
20.727
20.713
20.701
20.695
20.691
