Tektronix:  IConnect
Version 6.1.0

File Created: April 06, 2017 at 12:33PM
Created By: Tek_Local_Admin

Format: Waveform
Type: Frequency Domain

== Begin Header ==

Type: Scattering

Data Type: dBMagnitude/Phase
Samples: 501
Step Size: 40meg
First Step: 0
Reference Impedance: 50

== End Header ==

Data:
-11.095	180
-11.248	166.74
-11.699	153.53
-12.437	140.28
-13.46	126.61
-14.806	111.82
-16.558	94.723
-18.809	73.262
-21.392	43.642
-23.061	2.8053
-22.236	-37.988
-20.147	-66.137
-18.078	-84.737
-16.247	-98.899
-14.673	-111.64
-13.409	-124.3
-12.503	-137.15
-11.964	-150.01
-11.754	-162.6
-11.818	-174.9
-12.108	172.86
-12.622	160.21
-13.409	146.66
-14.544	131.84
-16.074	115.41
-17.942	96.604
-19.829	73.839
-20.932	45.774
-20.378	15.573
-18.48	-10.884
-16.261	-32.536
-14.339	-50.881
-12.914	-66.715
-11.966	-79.968
-11.333	-90.328
-10.765	-98.048
-10.057	-104.5
-9.2191	-111.56
-8.4495	-120.17
-7.9439	-129.92
-7.78	-139.76
-7.904	-148.6
-8.1581	-155.88
-8.3634	-162.06
-8.4626	-168.41
-8.5875	-176.07
-8.9582	174.91
-9.7493	165.47
-11.022	157.17
-12.674	151.71
-14.41	150.01
-15.926	150.81
-17.328	151.74
-19.112	153.25
-21.503	161.19
-22.932	-177.16
-21.372	-157.86
-19.289	-153.81
-18.12	-156.79
-17.772	-160.51
-17.798	-162.38
-17.737	-163.21
-17.558	-166.14
-17.752	-172.96
-18.971	177.31
-22.055	167.86
-29.263	171.37
-31.016	-90.61
-22.866	-78.385
-19.262	-82.686
-17.287	-86.002
-15.741	-86.29
-13.956	-85.959
-11.99	-88.599
-10.263	-94.769
-8.9998	-102.81
-8.1868	-110.99
-7.6922	-118.22
-7.3449	-124.13
-6.9943	-129.1
-6.5787	-133.95
-6.1531	-139.43
-5.8217	-145.6
-5.6359	-151.99
-5.5615	-158.14
-5.5297	-164.08
-5.5112	-170.22
-5.5494	-177.01
-5.7354	175.48
-6.1489	167.65
-6.8029	160.16
-7.6321	153.49
-8.5527	147.45
-9.5672	141.3
-10.828	134.42
-12.617	127.05
-15.317	121.09
-19.307	122.34
-23.556	145.05
-23.469	178.33
-21.992	-167.89
-21.528	-158.11
-20.755	-143.57
-18.611	-132.53
-16.277	-131.78
-14.799	-137.69
-14.455	-145.03
-15.128	-148.52
-16.021	-143.1
-15.628	-131.74
-14.037	-125.84
-12.577	-127.01
-11.771	-130.79
-11.542	-133.23
-11.431	-131.86
-10.779	-128.02
-9.5168	-126.55
-8.2213	-129.38
-7.2864	-134.72
-6.7433	-140.43
-6.4434	-145.22
-6.195	-148.94
-5.8784	-152.28
-5.5169	-156.15
-5.2207	-160.77
-5.0623	-165.7
-5.0197	-170.35
-5.0117	-174.59
-4.9801	-178.81
-4.951	176.4
-5.0147	170.85
-5.2556	164.86
-5.6968	159
-6.2925	153.73
-6.9745	148.99
-7.7359	144.25
-8.6841	139.06
-10.02	133.63
-11.985	129.35
-14.771	129.6
-18.074	141.34
-19.754	168.28
-18.573	-168.38
-16.763	-155.86
-15.033	-148.45
-13.301	-144.52
-11.685	-144.2
-10.387	-146.62
-9.4923	-150.24
-8.9348	-153.58
-8.5416	-155.84
-8.1213	-157.27
-7.6058	-158.91
-7.0945	-161.61
-6.7426	-165.26
-6.6411	-168.95
-6.7591	-171.52
-6.9272	-172.14
-6.9077	-171.12
-6.5835	-169.96
-6.0618	-170.07
-5.5362	-171.7
-5.1228	-174.25
-4.8269	-177
-4.5933	-179.64
-4.3774	177.71
-4.1864	174.81
-4.0633	171.65
-4.035	168.54
-4.0743	165.88
-4.1068	163.76
-4.0637	161.85
-3.9439	159.48
-3.8256	156.19
-3.8136	152.01
-3.979	147.38
-4.3416	142.82
-4.8873	138.75
-5.5919	135.46
-6.437	133.17
-7.4173	132.12
-8.5272	132.84
-9.7053	136.22
-10.723	143.21
-11.176	153.14
-10.872	162.77
-10.119	169.42
-9.3038	173.22
-8.5732	175.5
-7.8886	177.18
-7.1619	178.37
-6.3675	178.55
-5.5798	177.27
-4.9145	174.58
-4.4572	171.04
-4.2325	167.42
-4.1963	164.48
-4.241	162.65
-4.2365	161.78
-4.1152	161.13
-3.9302	159.9
-3.8097	157.96
-3.8475	155.95
-4.0278	154.85
-4.2102	155.36
-4.1834	157.24
-3.817	159.03
-3.2132	159.01
-2.6313	156.63
-2.2813	152.66
-2.2383	148.34
-2.4685	144.87
-2.8485	143.2
-3.1534	143.72
-3.1263	145.5
-2.7113	146.3
-2.1528	144.43
-1.7716	140.01
-1.7606	134.37
-2.1526	129.07
-2.8538	125.47
-3.6807	124.33
-4.4138	125.58
-4.901	128.22
-5.1506	131.04
-5.2675	133.57
-5.3082	135.97
-5.2608	138.29
-5.1353	140.28
-4.9936	141.91
-4.8656	143.68
-4.6652	146.12
-4.2331	148.83
-3.527	150.36
-2.7281	149.48
-2.0965	146.34
-1.7891	142.2
-1.7998	138.54
-1.9823	136.45
-2.1171	136.05
-2.0413	136.32
-1.7874	135.77
-1.5461	133.82
-1.4868	131.05
-1.6542	128.56
-1.9749	127.34
-2.2912	127.9
-2.4107	129.91
-2.2168	132.1
-1.7736	132.98
-1.2812	131.84
-0.94454	128.99
-0.89367	125.45
-1.1481	122.63
-1.5761	121.93
-1.8674	123.95
-1.686	127.12
-1.0427	128.35
-0.32759	126.02
0.081943	120.97
0.023987	115.09
-0.47888	110.28
-1.2627	108.07
-2.0197	109.24
-2.3974	112.73
-2.3066	115.91
-1.996	117.06
-1.7381	116.34
-1.654	114.72
-1.7605	113.03
-2.0427	111.91
-2.4671	112.06
-2.9186	114.4
-3.1123	119.32
-2.7094	125.08
-1.7523	128.2
-0.69883	127.04
0.050623	122.65
0.33522	116.95
0.15866	111.77
-0.34926	108.75
-0.89872	108.9
-1.114	111.48
-0.85557	113.84
-0.35544	113.92
0.07021	111.65
0.23519	108.12
0.10347	104.72
-0.23357	102.58
-0.60157	102.16
-0.83084	103.04
-0.85403	104.18
-0.73506	104.64
-0.60163	104.17
-0.55559	103.13
-0.62797	102.2
-0.76856	102.04
-0.85198	102.93
-0.73985	104.33
-0.40603	105
0.018507	103.98
0.33935	101.16
0.39247	97.239
0.095846	93.52
-0.48844	91.605
-1.1121	92.599
-1.4384	96.024
-1.2942	99.765
-0.80435	101.71
-0.24106	101.09
0.16058	98.391
0.273	94.708
0.078489	91.261
-0.35271	89.11
-0.87629	89
-1.2824	91.07
-1.3671	94.436
-1.0697	97.412
-0.51959	98.531
0.059934	97.271
0.45738	94.064
0.5475	90.067
0.34774	86.655
-0.00085158	84.677
-0.33651	84.122
-0.566	84.426
-0.67672	84.995
-0.69414	85.488
-0.64035	85.748
-0.52994	85.615
-0.3935	84.883
-0.28924	83.462
-0.28181	81.551
-0.40536	79.601
-0.64829	78.097
-0.96985	77.403
-1.313	77.808
-1.5827	79.53
-1.6293	82.327
-1.3384	85.026
-0.77126	86.046
-0.14053	84.552
0.32666	80.721
0.45344	75.422
0.13558	70.081
-0.60267	66.599
-1.5216	66.827
-2.1423	71.133
-2.0452	76.765
-1.3548	79.725
-0.56263	78.628
-0.036978	74.584
0.087572	69.343
-0.17458	64.392
-0.73687	60.826
-1.4658	59.452
-2.163	60.726
-2.5685	64.231
-2.5013	68.158
-2.0589	70.231
-1.552	69.557
-1.2401	66.92
-1.2041	63.696
-1.3896	60.938
-1.6937	59.113
-2.0255	58.225
-2.333	58.045
-2.6034	58.359
-2.836	59.144
-3.0006	60.487
-3.0301	62.238
-2.8781	63.776
-2.587	64.305
-2.2768	63.402
-2.0809	61.224
-2.0975	58.371
-2.3684	55.717
-2.8665	54.254
-3.4784	54.931
-3.9821	58.297
-4.0687	63.724
-3.5496	68.718
-2.6329	70.405
-1.7758	68.156
-1.2917	63.518
-1.2401	58.415
-1.547	54.202
-2.1003	51.799
-2.7378	51.971
-3.1833	54.937
-3.1313	59.163
-2.5936	61.613
-1.9633	60.732
-1.5973	57.563
-1.5835	54.042
-1.8116	51.547
-2.1093	50.511
-2.3368	50.619
-2.4309	51.189
-2.4083	51.557
-2.3378	51.375
-2.2934	50.703
-2.3157	49.876
-2.402	49.296
-2.5106	49.297
-2.5589	49.991
-2.4499	50.962
-2.1658	51.218
-1.832	49.924
-1.6364	47.162
-1.7058	43.832
-2.06	41.16
-2.6036	40.343
-3.1165	42.101
-3.3067	45.877
-3.0277	49.571
-2.4437	51.135
-1.8478	50.192
-1.423	47.549
-1.2244	44.097
-1.2661	40.471
-1.5679	37.358
-2.1093	35.893
-2.6977	37.458
-2.8996	42.014
-2.418	46.397
-1.537	47.189
-0.75888	44.069
-0.38591	38.686
-0.50376	33.088
-1.0308	29.222
-1.7133	28.538
-2.1551	31.01
-2.0765	34.339
-1.6055	35.778
-1.0799	34.583
-0.72461	31.549
-0.62102	27.712
-0.78494	24.008
-1.1793	21.453
-1.653	21.003
-1.936	22.633
-1.8377	24.713
-1.4421	25.236
-1.0094	23.392
-0.78875	19.688
-0.92844	15.533
-1.4051	12.846
-1.9533	13.137
-2.161	15.903
-1.8494	18.356
-1.2644	18.121
-0.76927	15.035
-0.59357	10.284
-0.8242	5.447
-1.4222	2.2908
-2.1548	2.4985
-2.5596	6.1722
-2.309	10.342
-1.6205	11.691
-0.92471	9.6029
-0.50134	5.1314
-0.48642	-0.25419
-0.90627	-4.7842
-1.6056	-6.5456
-2.1908	-4.7183
-2.2736	-1.1436
-1.8831	1.0644
-1.3554	0.58062
-0.96675	-2.069
-0.8521	-5.8078
-1.0657	-9.4543
-1.5855	-11.523
-2.1951	-10.335
-2.3991	-5.8524
-1.8659	-1.651
-0.91916	-1.4221
-0.083229	-5.5269
0.30942	-12.587
0.055575	-20.801
-0.98662	-27.61
-2.749	-28.635
-4.2703	-18.63
-3.7268	-3.9977
-1.8558	0.7844
-0.29827	-3.3905
0.52157	-11.601
0.59945	-20.967
-0.050874	-29.588
-1.4326	-35.07
-3.3037	-33.227
-4.4513	-20.926
-3.5561	-7.8225
-1.7593	-4.4201
-0.29385	-8.6265
0.49931	-16.705
0.52193	-26.058
-0.26564	-34.078
-1.7394	-37.242
-3.2169	-31.605
-3.2915	-19.87
