Tektronix:  IConnect
Version 6.1.0

File Created: April 06, 2017 at 12:33PM
Created By: Tek_Local_Admin

Format: Waveform
Type: Time Domain

== Begin Header ==

Type: Impedance

Samples: 16000
Step Size: 313f
First Step: 0
Reference Impedance: 50

== End Header ==

Data:
50
50.016
50.027
50.002
49.976
49.965
49.961
49.955
49.96
49.977
49.99
49.973
49.963
49.958
49.989
50.004
50.023
50.009
49.997
49.973
49.963
49.956
49.964
49.953
49.955
49.956
49.979
49.989
49.986
49.987
50.004
50.019
50.021
49.987
49.961
49.944
49.965
49.989
50.022
50.029
50.021
49.994
49.981
49.985
49.996
50
49.993
49.99
49.987
49.983
49.971
49.962
49.975
50.008
50.059
50.097
50.115
50.092
50.064
50.046
50.05
50.048
50.025
49.998
49.984
49.985
49.984
49.969
49.951
49.935
49.927
49.927
49.939
49.956
49.96
49.955
49.952
49.969
49.99
50.011
50.016
50.016
50.013
50.012
50.005
49.997
49.996
50.003
50.005
49.994
49.989
50.003
50.023
50.035
50.035
50.029
50.032
50.036
50.055
50.057
50.047
50.02
50.004
50.012
50.023
50.03
50.02
50.012
50.007
50.007
50.003
49.999
49.998
50.011
50.005
49.975
49.928
49.915
49.941
49.975
49.987
49.987
49.989
50.001
50.007
50.02
50.031
50.041
50.034
50.029
50.038
50.063
50.082
50.093
50.088
50.083
50.074
50.085
50.097
50.101
50.074
50.028
49.986
49.977
49.999
50.025
50.036
50.03
50.024
50.018
50.018
50.027
50.042
50.056
50.07
50.075
50.07
50.05
50.05
50.069
50.09
50.079
50.039
49.994
49.964
49.966
49.991
50.028
50.046
50.059
50.066
50.08
50.085
50.086
50.08
50.061
50.03
50.008
49.988
49.984
49.968
49.971
49.965
49.962
49.947
49.943
49.957
49.992
50.033
50.06
50.067
50.061
50.065
50.074
50.083
50.075
50.061
50.049
50.041
50.041
50.051
50.083
50.106
50.109
50.078
50.042
50.018
50.021
50.039
50.055
50.059
50.058
50.069
50.077
50.078
50.067
50.056
50.058
50.061
50.074
50.068
50.063
50.036
50.021
50.007
50.021
50.039
50.055
50.053
50.041
50.024
50.009
49.993
49.979
49.972
49.98
49.996
50.009
50.01
50.011
50.022
50.034
50.042
50.035
50.032
50.025
50.022
50.008
50.007
50.005
50.008
50.001
49.997
49.998
49.99
49.983
49.976
49.977
49.965
49.955
49.948
49.965
49.982
50.005
50.023
50.025
50.008
49.988
49.997
50.028
50.047
50.031
49.99
49.968
49.977
50.016
50.039
50.03
49.999
49.984
50.002
50.037
50.062
50.064
50.048
50.016
49.979
49.958
49.976
50.016
50.036
50.017
49.984
49.957
49.96
49.968
49.998
50.015
50.044
50.067
50.088
50.091
50.076
50.051
50.031
50.008
49.999
50.004
50.033
50.062
50.07
50.058
50.033
50.015
49.984
49.952
49.937
49.964
50.017
50.056
50.056
50.026
49.994
49.968
49.954
49.931
49.921
49.92
49.951
49.983
50.017
50.029
50.027
50.021
50.023
50.036
50.032
50.005
49.967
49.946
49.951
49.973
49.991
49.997
49.994
49.985
49.97
49.947
49.922
49.906
49.909
49.932
49.956
49.969
49.979
49.994
50.004
50.002
49.989
49.989
49.997
50.005
50.008
49.999
49.992
49.986
49.986
49.978
49.961
49.945
49.949
49.973
49.996
49.999
49.987
49.985
49.99
50.004
50.002
50.006
49.997
50.002
50.007
50.019
50.022
50.029
50.036
50.039
50.027
50.028
50.05
50.073
50.07
50.042
50.023
50.023
50.01
49.972
49.92
49.905
49.928
49.96
49.975
49.969
49.972
49.983
50.004
50.007
50
49.987
49.979
49.986
49.99
49.998
49.991
49.984
49.962
49.946
49.94
49.954
49.973
49.986
49.989
49.988
49.977
49.965
49.954
49.966
49.98
50.004
50.003
50
49.978
49.973
49.977
50.008
50.046
50.068
50.056
50.023
50.004
50.008
50.02
50.033
50.034
50.035
50.03
50.038
50.047
50.06
50.06
50.053
50.031
50.005
49.994
50.012
50.041
50.053
50.03
49.992
49.961
49.952
49.963
49.982
49.996
49.999
50
50.004
50.009
50.015
50.027
50.044
50.046
50.042
50.015
49.999
49.976
49.986
49.999
50.023
50.041
50.058
50.073
50.061
50.029
49.992
49.97
49.965
49.969
49.993
50.023
50.033
50
49.953
49.942
49.977
50.038
50.07
50.081
50.069
50.051
50.022
49.982
49.964
49.976
50.024
50.054
50.058
50.03
50.013
50.005
50.011
50.011
50.002
49.991
49.98
49.976
49.962
49.955
49.952
49.959
49.958
49.968
49.967
49.96
49.921
49.902
49.901
49.924
49.941
49.959
49.992
50.029
50.047
50.019
49.974
49.949
49.959
49.985
49.999
49.999
49.994
50.006
50.016
50.017
49.981
49.95
49.931
49.945
49.952
49.958
49.945
49.939
49.943
49.96
49.962
49.946
49.925
49.934
49.951
49.975
49.989
50.007
50.017
50.016
50.007
50.007
50.016
50.03
50.034
50.029
49.998
49.95
49.915
49.924
49.965
50.001
50.019
50.028
50.034
50.029
50.013
49.987
49.967
49.963
49.98
49.996
49.993
49.968
49.949
49.944
49.947
49.949
49.942
49.951
49.956
49.974
49.978
49.997
50.001
50.004
49.986
49.976
49.971
49.973
49.963
49.946
49.93
49.934
49.956
49.982
50.005
50.006
49.993
49.96
49.94
49.938
49.955
49.946
49.931
49.919
49.946
49.983
50.026
50.056
50.064
50.054
50.041
50.043
50.05
50.059
50.065
50.057
50.032
50.005
50.002
50.028
50.047
50.048
50.028
50.023
50.009
50.006
49.989
49.994
50.003
50.025
50.046
50.056
50.055
50.039
50.016
49.999
50.003
50.032
50.063
50.068
50.054
50.051
50.084
50.112
50.125
50.102
50.077
50.051
50.038
50.04
50.043
50.059
50.067
50.07
50.051
50.022
50.003
49.998
50.006
50.006
50.012
50.018
50.05
50.07
50.073
50.04
50.009
50.006
50.016
50.027
50.014
50.003
49.99
49.995
50.008
50.022
50.02
50.001
49.987
49.989
50.017
50.047
50.053
50.026
49.988
49.991
50.019
50.059
50.061
50.059
50.051
50.053
50.055
50.052
50.051
50.044
50.042
50.047
50.06
50.083
50.098
50.108
50.106
50.102
50.108
50.111
50.12
50.091
50.062
50.024
50.03
50.053
50.068
50.057
50.027
50.012
50.022
50.053
50.082
50.094
50.08
50.071
50.048
50.047
50.05
50.078
50.09
50.09
50.07
50.06
50.041
50.023
49.992
49.96
49.932
49.933
49.965
50.002
50.022
50.027
50.036
50.049
50.074
50.092
50.105
50.098
50.083
50.061
50.045
50.042
50.064
50.09
50.106
50.095
50.072
50.048
50.037
50.035
50.051
50.061
50.075
50.084
50.119
50.158
50.178
50.173
50.142
50.114
50.088
50.073
50.063
50.051
50.041
50.04
50.044
50.054
50.059
50.067
50.066
50.069
50.076
50.098
50.113
50.119
50.095
50.063
50.022
49.997
49.994
50.011
50.033
50.042
50.039
50.035
50.027
50.01
49.987
49.973
49.986
50.011
50.025
50.035
50.046
50.068
50.075
50.066
50.064
50.067
50.073
50.065
50.065
50.064
50.059
50.043
50.032
50.027
50.017
50.021
50.043
50.091
50.121
50.129
50.117
50.107
50.092
50.082
50.075
50.072
50.052
50.017
49.994
49.987
50.004
50.014
50.027
50.031
50.041
50.056
50.074
50.099
50.099
50.088
50.053
50.037
50.045
50.064
50.078
50.066
50.056
50.048
50.065
50.079
50.081
50.07
50.08
50.103
50.113
50.092
50.067
50.056
50.061
50.07
50.081
50.096
50.107
50.114
50.098
50.071
50.032
50.016
50.026
50.064
50.091
50.106
50.094
50.078
50.044
50.009
49.989
49.989
50.009
50.018
50.028
50.034
50.036
50.026
50.012
50.015
50.053
50.11
50.165
50.175
50.15
50.109
50.08
50.067
50.074
50.085
50.104
50.1
50.094
50.079
50.073
50.063
50.054
50.035
50.026
50.016
50.032
50.049
50.074
50.078
50.079
50.063
50.051
50.048
50.059
50.089
50.107
50.129
50.127
50.115
50.083
50.058
50.059
50.076
50.099
50.111
50.121
50.119
50.116
50.096
50.086
50.064
50.065
50.065
50.07
50.062
50.055
50.066
50.097
50.134
50.164
50.175
50.166
50.143
50.11
50.09
50.085
50.103
50.124
50.139
50.14
50.142
50.148
50.169
50.18
50.182
50.162
50.146
50.131
50.118
50.112
50.122
50.159
50.184
50.188
50.161
50.155
50.171
50.194
50.201
50.192
50.192
50.183
50.157
50.103
50.053
50.021
50.007
50.006
50.013
50.029
50.049
50.081
50.106
50.114
50.097
50.077
50.064
50.052
50.041
50.024
50.012
50.001
49.991
49.987
49.99
50.008
50.024
50.033
50.027
50.022
50.002
49.971
49.94
49.925
49.92
49.909
49.886
49.881
49.877
49.895
49.894
49.898
49.879
49.872
49.866
49.879
49.886
49.895
49.891
49.889
49.888
49.9
49.914
49.919
49.907
49.888
49.874
49.864
49.856
49.838
49.829
49.828
49.832
49.833
49.822
49.815
49.808
49.821
49.842
49.885
49.897
49.893
49.871
49.869
49.885
49.896
49.914
49.919
49.927
49.925
49.924
49.919
49.911
49.904
49.904
49.915
49.932
49.952
49.96
49.967
49.972
49.993
50.005
50.01
50.008
50.006
50.003
49.99
49.988
49.988
50.004
50.006
50.014
50.028
50.075
50.127
50.169
50.162
50.143
50.117
50.121
50.128
50.146
50.15
50.15
50.145
50.148
50.141
50.131
50.118
50.131
50.156
50.179
50.184
50.182
50.176
50.173
50.17
50.18
50.199
50.216
50.233
50.251
50.279
50.298
50.301
50.288
50.28
50.293
50.308
50.312
50.288
50.273
50.262
50.272
50.27
50.266
50.242
50.229
50.222
50.229
50.242
50.27
50.303
50.32
50.313
50.285
50.249
50.211
50.195
50.205
50.237
50.268
50.287
50.295
50.281
50.265
50.235
50.223
50.204
50.202
50.202
50.219
50.237
50.249
50.253
50.251
50.251
50.239
50.22
50.215
50.229
50.258
50.26
50.244
50.218
50.198
50.191
50.187
50.194
50.196
50.191
50.171
50.147
50.135
50.144
50.155
50.165
50.154
50.144
50.129
50.131
50.135
50.14
50.144
50.15
50.156
50.15
50.136
50.136
50.154
50.193
50.205
50.194
50.154
50.135
50.128
50.134
50.128
50.119
50.11
50.11
50.106
50.102
50.099
50.12
50.146
50.173
50.18
50.19
50.197
50.199
50.172
50.125
50.088
50.088
50.128
50.174
50.199
50.196
50.175
50.159
50.159
50.18
50.199
50.2
50.191
50.18
50.178
50.183
50.203
50.227
50.235
50.227
50.204
50.189
50.179
50.189
50.216
50.247
50.257
50.226
50.184
50.155
50.164
50.18
50.202
50.208
50.205
50.185
50.176
50.182
50.202
50.207
50.219
50.236
50.274
50.293
50.304
50.3
50.293
50.282
50.286
50.311
50.333
50.332
50.311
50.283
50.254
50.229
50.209
50.2
50.192
50.197
50.209
50.225
50.237
50.242
50.267
50.293
50.302
50.28
50.251
50.243
50.249
50.263
50.276
50.294
50.299
50.301
50.295
50.293
50.283
50.276
50.276
50.281
50.278
50.273
50.275
50.294
50.32
50.337
50.327
50.301
50.28
50.274
50.292
50.322
50.365
50.378
50.368
50.329
50.301
50.277
50.271
50.278
50.304
50.339
50.361
50.367
50.35
50.331
50.307
50.301
50.306
50.326
50.344
50.356
50.355
50.35
50.358
50.374
50.395
50.384
50.363
50.34
50.329
50.338
50.344
50.355
50.344
50.324
50.296
50.272
50.269
50.272
50.285
50.27
50.248
50.217
50.228
50.253
50.275
50.279
50.293
50.331
50.352
50.341
50.315
50.3
50.291
50.275
50.257
50.27
50.273
50.273
50.233
50.226
50.231
50.264
50.278
50.292
50.306
50.32
50.322
50.314
50.309
50.314
50.306
50.306
50.286
50.283
50.269
50.272
50.274
50.261
50.25
50.237
50.248
50.266
50.291
50.302
50.288
50.239
50.201
50.182
50.211
50.226
50.252
50.249
50.249
50.24
50.245
50.256
50.259
50.238
50.213
50.191
50.188
50.184
50.184
50.183
50.197
50.207
50.222
50.222
50.213
50.178
50.139
50.106
50.106
50.132
50.171
50.186
50.186
50.176
50.182
50.173
50.154
50.133
50.135
50.143
50.149
50.14
50.127
50.096
50.068
50.055
50.076
50.106
50.131
50.132
50.117
50.099
50.087
50.087
50.074
50.063
50.059
50.075
50.08
50.053
50.002
49.972
49.959
49.949
49.917
49.903
49.915
49.954
49.966
49.959
49.919
49.886
49.866
49.86
49.844
49.808
49.775
49.757
49.743
49.731
49.71
49.709
49.703
49.711
49.692
49.675
49.632
49.59
49.541
49.518
49.518
49.531
49.525
49.503
49.467
49.451
49.428
49.409
49.369
49.348
49.322
49.315
49.298
49.28
49.25
49.213
49.182
49.148
49.118
49.083
49.059
49.042
49.037
49.017
48.979
48.917
48.852
48.798
48.766
48.759
48.755
48.751
48.739
48.728
48.688
48.638
48.58
48.548
48.525
48.509
48.508
48.502
48.498
48.461
48.416
48.369
48.351
48.345
48.323
48.281
48.242
48.227
48.214
48.188
48.151
48.127
48.119
48.107
48.073
48.02
47.964
47.929
47.925
47.948
47.984
48.002
48.006
47.989
47.967
47.948
47.931
47.93
47.933
47.942
47.939
47.941
47.972
48.025
48.067
48.066
48.046
48.03
48.039
48.058
48.09
48.12
48.151
48.166
48.199
48.246
48.32
48.379
48.425
48.439
48.459
48.49
48.549
48.602
48.641
48.673
48.705
48.753
48.803
48.857
48.912
48.96
49.01
49.053
49.101
49.166
49.23
49.292
49.332
49.385
49.459
49.555
49.648
49.711
49.757
49.806
49.873
49.963
50.046
50.129
50.199
50.277
50.363
50.426
50.479
50.512
50.564
50.624
50.696
50.775
50.855
50.944
51.026
51.117
51.177
51.23
51.256
51.294
51.347
51.415
51.484
51.533
51.565
51.614
51.67
51.752
51.798
51.838
51.865
51.915
51.975
52.02
52.053
52.078
52.105
52.133
52.146
52.159
52.175
52.206
52.249
52.28
52.294
52.282
52.267
52.251
52.248
52.239
52.228
52.207
52.207
52.207
52.208
52.208
52.215
52.205
52.151
52.09
52.057
52.054
52.051
52.027
52.005
51.978
51.944
51.897
51.833
51.771
51.708
51.662
51.606
51.547
51.481
51.434
51.378
51.325
51.254
51.189
51.098
50.974
50.826
50.696
50.604
50.545
50.48
50.418
50.335
50.25
50.128
49.987
49.815
49.658
49.524
49.408
49.268
49.1
48.943
48.827
48.744
48.646
48.513
48.347
48.165
47.988
47.814
47.628
47.426
47.206
47.014
46.832
46.692
46.54
46.375
46.162
45.943
45.74
45.548
45.339
45.12
44.899
44.697
44.465
44.219
43.956
43.723
43.495
43.254
43.002
42.748
42.51
42.273
42.032
41.771
41.481
41.2
40.931
40.686
40.426
40.161
39.905
39.64
39.347
39.022
38.712
38.442
38.18
37.906
37.618
37.314
37.015
36.692
36.367
36.014
35.682
35.371
35.094
34.812
34.557
34.296
34.047
33.738
33.397
33.049
32.753
32.505
32.275
32.012
31.74
31.441
31.147
30.849
30.569
30.306
30.003
29.711
29.391
29.128
28.867
28.651
28.436
28.228
28.01
27.768
27.511
27.25
27.033
26.842
26.663
26.449
26.214
25.986
25.799
25.645
25.492
25.343
25.182
25.021
24.847
24.697
24.589
24.513
24.424
24.289
24.132
23.989
23.899
23.84
23.801
23.746
23.686
23.627
23.584
23.556
23.521
23.49
23.451
23.433
23.43
23.456
23.495
23.538
23.579
23.617
23.667
23.726
23.803
23.894
23.993
24.095
24.193
24.296
24.404
24.531
24.66
24.804
24.943
25.113
25.294
25.49
25.657
25.824
25.999
26.232
26.47
26.734
26.981
27.231
27.449
27.632
27.826
28.063
28.4
28.759
29.14
29.458
29.766
30.055
30.382
30.74
31.124
31.527
31.927
32.322
32.673
33.016
33.305
33.598
33.883
34.316
34.905
35.565
36.111
36.497
36.848
37.237
37.637
38.012
38.394
38.789
39.17
39.535
39.887
40.301
40.71
41.25
41.788
42.339
42.756
43.115
43.514
43.974
44.551
45.059
45.517
45.805
46.085
46.4
46.778
47.206
47.607
48.005
48.288
48.519
48.696
48.937
49.122
49.368
49.593
49.938
50.27
50.587
50.832
50.986
51.112
51.229
51.389
51.597
51.744
51.85
51.854
51.862
51.818
51.828
51.849
51.906
51.868
51.803
51.715
51.689
51.676
51.646
51.555
51.42
51.275
51.158
51.043
50.913
50.739
50.545
50.355
50.189
50.04
49.888
49.715
49.518
49.313
49.114
48.929
48.728
48.524
48.309
48.12
47.923
47.712
47.464
47.205
46.959
46.737
46.55
46.364
46.173
45.934
45.677
45.421
45.205
45.032
44.866
44.693
44.485
44.279
44.08
43.913
43.726
43.5
43.27
43.079
42.963
42.863
42.76
42.624
42.455
42.287
42.106
41.96
41.799
41.659
41.513
41.408
41.321
41.254
41.178
41.102
41.012
40.913
40.808
40.724
40.653
40.588
40.515
40.446
40.383
40.329
40.291
40.265
40.241
40.204
40.176
40.152
40.142
40.126
40.12
40.106
40.09
40.062
40.054
40.052
40.07
40.086
40.108
40.118
40.126
40.131
40.15
40.179
40.236
40.307
40.364
40.384
40.384
40.391
40.422
40.467
40.53
40.585
40.636
40.666
40.693
40.73
40.764
40.828
40.89
40.983
41.057
41.127
41.204
41.293
41.394
41.461
41.503
41.514
41.545
41.606
41.714
41.813
41.891
41.928
41.963
41.993
42.053
42.132
42.251
42.352
42.439
42.494
42.545
42.582
42.613
42.648
42.698
42.743
42.783
42.833
42.909
42.992
43.032
43.048
43.055
43.093
43.108
43.136
43.145
43.178
43.194
43.212
43.232
43.256
43.28
43.288
43.284
43.28
43.272
43.273
43.266
43.279
43.292
43.315
43.31
43.285
43.226
43.16
43.104
43.081
43.079
43.073
43.039
42.98
42.914
42.856
42.814
42.759
42.705
42.636
42.578
42.533
42.502
42.484
42.442
42.382
42.285
42.182
42.087
42.013
41.961
41.912
41.86
41.801
41.74
41.671
41.6
41.517
41.45
41.365
41.279
41.173
41.086
41.018
40.98
40.945
40.912
40.864
40.813
40.755
40.699
40.661
40.624
40.593
40.558
40.528
40.486
40.426
40.366
40.324
40.293
40.28
40.269
40.261
40.229
40.197
40.182
40.202
40.22
40.229
40.218
40.224
40.223
40.215
40.201
40.211
40.238
40.267
40.281
40.311
40.353
40.41
40.456
40.491
40.523
40.555
40.592
40.628
40.661
40.691
40.722
40.769
40.824
40.883
40.938
40.983
41.03
41.066
41.11
41.158
41.227
41.314
41.392
41.455
41.489
41.519
41.547
41.572
41.605
41.646
41.713
41.764
41.789
41.779
41.769
41.777
41.816
41.873
41.927
41.956
41.965
41.98
42
42.045
42.086
42.12
42.116
42.093
42.067
42.048
42.027
42.003
41.98
41.958
41.934
41.902
41.892
41.882
41.875
41.843
41.809
41.77
41.734
41.701
41.673
41.654
41.63
41.591
41.526
41.443
41.35
41.261
41.174
41.102
41.03
40.978
40.92
40.87
40.805
40.749
40.695
40.649
40.586
40.506
40.408
40.321
40.24
40.175
40.092
40.003
39.905
39.822
39.741
39.657
39.579
39.508
39.46
39.394
39.321
39.228
39.16
39.111
39.082
39.038
38.976
38.912
38.868
38.841
38.796
38.732
38.653
38.59
38.543
38.507
38.488
38.479
38.48
38.459
38.425
38.383
38.357
38.328
38.296
38.256
38.24
38.241
38.258
38.27
38.271
38.277
38.292
38.322
38.344
38.353
38.366
38.384
38.415
38.426
38.431
38.432
38.449
38.475
38.502
38.54
38.576
38.625
38.669
38.73
38.786
38.844
38.887
38.918
38.946
38.974
39.024
39.077
39.137
39.187
39.236
39.292
39.356
39.435
39.513
39.584
39.651
39.71
39.77
39.804
39.842
39.885
39.958
40.041
40.118
40.185
40.243
40.301
40.359
40.417
40.479
40.537
40.588
40.623
40.652
40.678
40.707
40.732
40.758
40.789
40.83
40.867
40.891
40.906
40.922
40.935
40.959
41
41.054
41.098
41.116
41.124
41.133
41.14
41.141
41.124
41.109
41.084
41.074
41.08
41.105
41.121
41.114
41.103
41.087
41.075
41.053
41.034
41.017
41.002
40.988
40.968
40.946
40.905
40.853
40.782
40.723
40.674
40.65
40.632
40.611
40.573
40.512
40.465
40.429
40.405
40.368
40.325
40.276
40.231
40.186
40.16
40.139
40.126
40.088
40.035
39.965
39.913
39.87
39.845
39.816
39.79
39.76
39.722
39.689
39.644
39.606
39.554
39.515
39.47
39.434
39.395
39.341
39.266
39.186
39.134
39.112
39.101
39.084
39.071
39.065
39.064
39.057
39.044
39.028
39.014
39.003
38.992
38.978
38.962
38.947
38.936
38.909
38.883
38.848
38.834
38.82
38.815
38.817
38.827
38.835
38.825
38.812
38.807
38.817
38.829
38.837
38.84
38.844
38.853
38.866
38.888
38.912
38.931
38.935
38.935
38.939
38.965
38.996
39.025
39.047
39.073
39.105
39.13
39.152
39.164
39.182
39.211
39.25
39.285
39.307
39.324
39.343
39.361
39.387
39.42
39.464
39.501
39.53
39.553
39.577
39.594
39.608
39.628
39.662
39.694
39.713
39.724
39.743
39.778
39.817
39.854
39.886
39.917
39.94
39.943
39.935
39.924
39.939
39.972
40.015
40.037
40.046
40.045
40.042
40.028
40.011
40.004
40.008
40.013
40.021
40.034
40.048
40.05
40.045
40.04
40.044
40.041
40.043
40.038
40.028
40.006
39.989
39.994
40.003
40.006
39.981
39.94
39.898
39.87
39.855
39.831
39.804
39.771
39.75
39.724
39.703
39.676
39.662
39.644
39.621
39.583
39.545
39.522
39.502
39.482
39.459
39.438
39.418
39.389
39.365
39.349
39.339
39.331
39.308
39.289
39.257
39.24
39.221
39.21
39.181
39.148
39.111
39.104
39.114
39.125
39.124
39.107
39.097
39.091
39.1
39.108
39.12
39.134
39.157
39.166
39.158
39.142
39.14
39.155
39.169
39.194
39.221
39.248
39.249
39.24
39.231
39.24
39.253
39.27
39.29
39.314
39.348
39.38
39.419
39.455
39.488
39.507
39.517
39.539
39.581
39.637
39.69
39.729
39.758
39.793
39.832
39.879
39.913
39.937
39.952
39.975
40.018
40.056
40.088
40.104
40.127
40.146
40.175
40.211
40.26
40.307
40.346
40.373
40.396
40.416
40.446
40.479
40.5
40.511
40.51
40.528
40.547
40.572
40.581
40.593
40.597
40.61
40.616
40.622
40.62
40.622
40.631
40.645
40.659
40.677
40.678
40.66
40.63
40.613
40.612
40.614
40.614
40.611
40.599
40.578
40.548
40.524
40.493
40.463
40.43
40.418
40.411
40.407
40.384
40.363
40.336
40.316
40.283
40.247
40.205
40.161
40.129
40.097
40.077
40.044
40.003
39.952
39.901
39.859
39.818
39.782
39.74
39.694
39.653
39.623
39.605
39.579
39.546
39.513
39.484
39.46
39.426
39.394
39.359
39.33
39.307
39.293
39.278
39.247
39.201
39.164
39.133
39.108
39.064
39.018
38.979
38.96
38.948
38.93
38.914
38.907
38.908
38.904
38.889
38.875
38.875
38.897
38.919
38.923
38.92
38.918
38.923
38.919
38.908
38.895
38.886
38.891
38.907
38.918
38.911
38.901
38.903
38.928
38.953
38.977
38.976
38.976
38.976
39.003
39.048
39.102
39.154
39.189
39.21
39.212
39.221
39.248
39.299
39.341
39.356
39.355
39.361
39.384
39.416
39.449
39.489
39.529
39.571
39.598
39.627
39.662
39.712
39.759
39.791
39.805
39.81
39.826
39.862
39.907
39.931
39.943
39.956
39.992
40.025
40.05
40.065
40.085
40.115
40.144
40.174
40.195
40.21
40.208
40.207
40.221
40.254
40.299
40.34
40.38
40.404
40.41
40.409
40.416
40.438
40.452
40.455
40.455
40.453
40.461
40.457
40.466
40.47
40.493
40.501
40.499
40.472
40.455
40.443
40.449
40.462
40.486
40.489
40.465
40.434
40.432
40.453
40.475
40.471
40.452
40.434
40.435
40.447
40.449
40.426
40.394
40.36
40.337
40.315
40.293
40.284
40.275
40.272
40.238
40.206
40.169
40.16
40.156
40.156
40.133
40.103
40.085
40.088
40.089
40.067
40.032
40
39.971
39.946
39.93
39.927
39.918
39.907
39.894
39.895
39.903
39.911
39.908
39.885
39.859
39.834
39.817
39.785
39.755
39.729
39.716
39.7
39.688
39.683
39.697
39.709
39.714
39.696
39.666
39.639
39.635
39.65
39.668
39.664
39.655
39.649
39.665
39.68
39.688
39.686
39.669
39.65
39.62
39.614
39.626
39.659
39.678
39.679
39.666
39.664
39.677
39.701
39.729
39.75
39.762
39.751
39.738
39.742
39.774
39.811
39.836
39.843
39.853
39.868
39.895
39.92
39.939
39.948
39.967
39.991
40.01
39.997
39.98
39.981
40.022
40.063
40.086
40.072
40.06
40.061
40.089
40.12
40.16
40.195
40.236
40.266
40.295
40.314
40.32
40.322
40.33
40.362
40.403
40.429
40.435
40.427
40.432
40.435
40.441
40.448
40.468
40.478
40.465
40.447
40.452
40.47
40.482
40.479
40.476
40.477
40.492
40.513
40.541
40.549
40.533
40.5
40.478
40.491
40.528
40.565
40.576
40.569
40.548
40.527
40.495
40.472
40.457
40.458
40.455
40.447
40.438
40.437
40.436
40.426
40.41
40.389
40.37
40.351
40.35
40.358
40.365
40.354
40.33
40.301
40.275
40.246
40.211
40.19
40.188
40.21
40.216
40.207
40.182
40.162
40.143
40.132
40.115
40.107
40.086
40.084
40.074
40.078
40.073
40.074
40.073
40.066
40.05
40.025
40.004
39.992
39.98
39.967
39.959
39.976
40.003
40.016
40.005
39.991
39.999
40.008
40.01
39.994
39.979
39.968
39.97
39.973
39.965
39.946
39.93
39.937
39.957
39.982
39.996
40.006
40.004
40.016
40.03
40.064
40.088
40.106
40.107
40.107
40.118
40.15
40.192
40.227
40.237
40.222
40.205
40.189
40.196
40.198
40.219
40.239
40.28
40.314
40.342
40.353
40.366
40.381
40.408
40.428
40.446
40.457
40.471
40.476
40.479
40.486
40.508
40.532
40.553
40.583
40.622
40.671
40.703
40.717
40.708
40.684
40.664
40.671
40.714
40.769
40.804
40.83
40.838
40.842
40.826
40.818
40.822
40.839
40.848
40.85
40.862
40.885
40.909
40.918
40.917
40.925
40.93
40.938
40.931
40.928
40.923
40.927
40.921
40.921
40.905
40.901
40.886
40.887
40.88
40.887
40.903
40.921
40.928
40.909
40.88
40.85
40.829
40.836
40.844
40.861
40.849
40.835
40.815
40.818
40.828
40.835
40.838
40.838
40.838
40.816
40.785
40.762
40.767
40.781
40.781
40.757
40.729
40.713
40.716
40.722
40.717
40.692
40.66
40.638
40.632
40.627
40.611
40.588
40.567
40.56
40.558
40.557
40.547
40.533
40.518
40.505
40.493
40.488
40.474
40.455
40.422
40.408
40.412
40.444
40.467
40.482
40.479
40.479
40.488
40.501
40.516
40.522
40.532
40.539
40.544
40.54
40.522
40.501
40.476
40.472
40.478
40.498
40.511
40.522
40.525
40.523
40.532
40.555
40.589
40.614
40.622
40.613
40.598
40.604
40.624
40.659
40.681
40.706
40.73
40.764
40.791
40.813
40.825
40.827
40.823
40.813
40.822
40.837
40.866
40.896
40.922
40.944
40.941
40.937
40.938
40.96
40.992
41.011
41.028
41.034
41.054
41.079
41.106
41.112
41.095
41.074
41.083
41.107
41.142
41.157
41.165
41.171
41.178
41.185
41.178
41.168
41.159
41.171
41.197
41.231
41.247
41.257
41.263
41.274
41.287
41.29
41.279
41.257
41.239
41.236
41.241
41.238
41.229
41.207
41.195
41.182
41.18
41.169
41.159
41.152
41.165
41.193
41.22
41.23
41.219
41.189
41.156
41.127
41.113
41.099
41.073
41.057
41.052
41.058
41.043
41.017
40.989
40.965
40.939
40.925
40.918
40.911
40.892
40.879
40.864
40.844
40.809
40.772
40.75
40.741
40.743
40.739
40.716
40.682
40.646
40.614
40.578
40.529
40.494
40.477
40.464
40.441
40.411
40.4
40.401
40.405
40.383
40.342
40.28
40.223
40.168
40.126
40.083
40.046
40.006
39.984
39.974
39.965
39.938
39.885
39.833
39.784
39.763
39.742
39.73
39.701
39.664
39.61
39.563
39.524
39.493
39.46
39.422
39.382
39.343
39.29
39.235
39.176
39.137
39.103
39.07
39.028
38.985
38.938
38.888
38.844
38.799
38.751
38.676
38.6
38.538
38.5
38.46
38.404
38.335
38.277
38.229
38.198
38.16
38.116
38.064
38.002
37.943
37.868
37.809
37.756
37.719
37.671
37.608
37.544
37.487
37.435
37.379
37.318
37.255
37.194
37.124
37.043
36.957
36.88
36.814
36.745
36.671
36.597
36.528
36.46
36.377
36.287
36.198
36.125
36.064
35.991
35.91
35.803
35.705
35.609
35.537
35.468
35.408
35.348
35.276
35.189
35.082
34.973
34.865
34.774
34.699
34.634
34.56
34.47
34.374
34.274
34.184
34.1
34.028
33.963
33.89
33.82
33.737
33.667
33.578
33.487
33.37
33.27
33.173
33.086
32.987
32.9
32.804
32.694
32.57
32.469
32.415
32.373
32.323
32.237
32.143
32.047
31.968
31.894
31.821
31.743
31.67
31.601
31.53
31.443
31.342
31.244
31.165
31.101
31.031
30.949
30.858
30.765
30.678
30.605
30.553
30.505
30.44
30.37
30.305
30.261
30.212
30.138
30.049
29.955
29.875
29.801
29.737
29.686
29.633
29.595
29.556
29.53
29.488
29.435
29.368
29.296
29.226
29.159
29.113
29.068
29.027
28.972
28.919
28.863
28.82
28.784
28.748
28.707
28.661
28.619
28.566
28.516
28.477
28.452
28.425
28.386
28.341
28.294
28.245
28.207
28.177
28.162
28.139
28.115
28.08
28.057
28.031
28.005
27.969
27.938
27.916
27.897
27.88
27.863
27.848
27.829
27.801
27.781
27.759
27.741
27.716
27.704
27.69
27.678
27.648
27.627
27.597
27.573
27.542
27.532
27.538
27.542
27.53
27.5
27.465
27.433
27.411
27.409
27.424
27.446
27.452
27.436
27.418
27.402
27.401
27.397
27.4
27.399
27.403
27.4
27.399
27.395
27.389
27.389
27.381
27.38
27.376
27.384
27.391
27.396
27.397
27.39
27.384
27.385
27.4
27.411
27.407
27.39
27.376
27.378
27.397
27.428
27.45
27.458
27.462
27.471
27.489
27.49
27.486
27.479
27.5
27.535
27.569
27.588
27.589
27.6
27.624
27.662
27.685
27.695
27.697
27.711
27.727
27.744
27.757
27.775
27.8
27.831
27.858
27.884
27.908
27.939
27.965
27.994
28.02
28.057
28.083
28.1
28.113
28.129
28.149
28.161
28.184
28.216
28.263
28.311
28.359
28.4
28.42
28.434
28.448
28.476
28.504
28.538
28.581
28.628
28.674
28.703
28.732
28.769
28.824
28.882
28.921
28.946
28.972
29.015
29.055
29.081
29.098
29.122
29.154
29.208
29.274
29.35
29.401
29.433
29.463
29.502
29.547
29.585
29.623
29.667
29.725
29.783
29.84
29.882
29.919
29.955
29.998
30.047
30.096
30.141
30.185
30.227
30.271
30.31
30.347
30.383
30.423
30.466
30.512
30.563
30.619
30.688
30.757
30.834
30.896
30.954
31.001
31.054
31.109
31.158
31.199
31.226
31.254
31.281
31.331
31.391
31.467
31.531
31.595
31.641
31.695
31.745
31.799
31.843
31.888
31.939
31.999
32.062
32.116
32.164
32.202
32.231
32.25
32.274
32.313
32.367
32.422
32.472
32.526
32.586
32.637
32.675
32.701
32.747
32.806
32.89
32.961
33.035
33.094
33.144
33.163
33.178
33.207
33.266
33.333
33.397
33.453
33.513
33.583
33.644
33.678
33.683
33.683
33.693
33.726
33.774
33.828
33.879
33.916
33.959
33.998
34.051
34.101
34.147
34.176
34.195
34.225
34.27
34.315
34.35
34.374
34.404
34.44
34.486
34.535
34.584
34.625
34.651
34.672
34.7
34.738
34.767
34.792
34.813
34.853
34.886
34.924
34.951
34.977
35.004
35.027
35.051
35.064
35.089
35.121
35.157
35.177
35.19
35.199
35.215
35.237
35.255
35.284
35.31
35.354
35.376
35.394
35.395
35.417
35.449
35.487
35.508
35.506
35.497
35.484
35.481
35.491
35.521
35.566
35.608
35.63
35.639
35.638
35.651
35.664
35.675
35.68
35.677
35.684
35.702
35.73
35.764
35.785
35.805
35.817
35.833
35.842
35.842
35.838
35.843
35.861
35.89
35.907
35.911
35.905
35.913
35.937
35.967
35.989
35.997
35.998
35.988
35.986
35.991
36.004
36.007
36.008
36.011
36.016
36.014
36.01
36.005
36.001
36.004
36.025
36.06
36.092
36.103
36.102
36.095
36.091
36.094
36.098
36.113
36.123
36.132
36.132
36.143
36.16
36.176
36.171
36.17
36.168
36.191
36.205
36.225
36.237
36.241
36.229
36.197
36.177
36.174
36.203
36.233
36.259
36.267
36.27
36.272
36.281
36.294
36.299
36.301
36.304
36.316
36.33
36.339
36.349
36.354
36.362
36.363
36.373
36.387
36.397
36.407
36.409
36.423
36.428
36.435
36.431
36.434
36.455
36.486
36.515
36.515
36.512
36.5
36.499
36.503
36.529
36.559
36.579
36.587
36.599
36.624
36.647
36.667
36.67
36.67
36.657
36.649
36.647
36.658
36.681
36.714
36.748
36.779
36.803
36.826
36.847
36.869
36.881
36.885
36.876
36.876
36.891
36.928
36.969
37.007
37.038
37.068
37.087
37.097
37.104
37.121
37.156
37.197
37.23
37.25
37.262
37.278
37.308
37.342
37.369
37.385
37.396
37.419
37.44
37.453
37.461
37.479
37.527
37.569
37.604
37.62
37.646
37.672
37.691
37.702
37.721
37.75
37.781
37.805
37.825
37.84
37.862
37.883
37.895
37.886
37.878
37.895
37.928
37.963
37.994
38.032
38.073
38.097
38.104
38.112
38.131
38.168
38.199
38.223
38.237
38.246
38.258
38.266
38.277
38.289
38.3
38.309
38.302
38.297
38.289
38.295
38.3
38.317
38.352
38.393
38.434
38.452
38.467
38.476
38.478
38.465
38.443
38.432
38.438
38.459
38.478
38.485
38.473
38.457
38.446
38.453
38.464
38.481
38.488
38.489
38.471
38.462
38.472
38.492
38.513
38.52
38.527
38.522
38.514
38.494
38.478
38.473
38.49
38.513
38.531
38.527
38.517
38.502
38.49
38.476
38.469
38.474
38.488
38.501
38.497
38.49
38.501
38.537
38.585
38.613
38.624
38.618
38.598
38.58
38.57
38.599
38.62
38.633
38.608
38.58
38.556
38.555
38.567
38.571
38.563
38.557
38.565
38.578
38.592
38.602
38.606
38.605
38.612
38.631
38.657
38.672
38.678
38.667
38.658
38.661
38.686
38.711
38.725
38.728
38.735
38.754
38.774
38.8
38.816
38.832
38.823
38.809
38.8
38.817
38.847
38.871
38.876
38.874
38.875
38.884
38.893
38.895
38.912
38.932
38.952
38.945
38.933
38.93
38.938
38.939
38.936
38.929
38.932
38.928
38.928
38.937
38.963
38.987
38.994
38.978
38.973
38.975
39.007
39.031
39.053
39.045
39.031
39.019
39.027
39.043
39.055
39.054
39.045
39.03
39.019
39.011
39.015
39.026
39.038
39.041
39.038
39.043
39.053
39.067
39.073
39.078
39.077
39.075
39.063
39.051
39.04
39.051
39.068
39.096
39.104
39.102
39.087
39.083
39.095
39.114
39.136
39.149
39.151
39.141
39.117
39.105
39.105
39.128
39.15
39.164
39.163
39.15
39.139
39.145
39.172
39.21
39.23
39.24
39.23
39.231
39.223
39.227
39.223
39.241
39.272
39.318
39.349
39.355
39.339
39.331
39.333
39.341
39.345
39.357
39.382
39.409
39.423
39.43
39.443
39.463
39.48
39.494
39.514
39.545
39.565
39.559
39.534
39.515
39.525
39.549
39.579
39.595
39.605
39.609
39.616
39.619
39.626
39.636
39.668
39.7
39.729
39.736
39.755
39.779
39.813
39.832
39.846
39.856
39.859
39.859
39.848
39.846
39.849
39.868
39.885
39.891
39.896
39.892
39.91
39.926
39.974
39.999
40.026
40.033
40.051
40.041
40.014
39.99
39.995
40.027
40.068
40.108
40.136
40.152
40.161
40.178
40.198
40.22
40.233
40.235
40.226
40.195
40.179
40.185
40.227
40.252
40.261
40.244
40.245
40.251
40.271
40.281
40.29
40.296
40.312
40.327
40.343
40.34
40.326
40.301
40.303
40.323
40.35
40.363
40.359
40.354
40.353
40.369
40.383
40.381
40.374
40.365
40.374
40.381
40.398
40.407
40.418
40.42
40.412
40.41
40.408
40.42
40.414
40.416
40.407
40.399
40.375
40.355
40.347
40.347
40.35
40.352
40.355
40.36
40.366
40.373
40.37
40.362
40.349
40.34
40.331
40.331
40.334
40.333
40.32
40.307
40.298
40.304
40.309
40.32
40.317
40.309
40.289
40.277
40.292
40.326
40.36
40.363
40.343
40.32
40.308
40.31
40.324
40.348
40.373
40.385
40.388
40.377
40.356
40.323
40.299
40.289
40.303
40.323
40.349
40.349
40.336
40.311
40.307
40.312
40.334
40.354
40.384
40.407
40.417
40.409
40.394
40.383
40.375
40.373
40.378
40.386
40.392
40.383
40.381
40.376
40.389
40.397
40.415
40.442
40.47
40.48
40.455
40.431
40.42
40.429
40.431
40.444
40.461
40.479
40.474
40.454
40.437
40.438
40.464
40.494
40.512
40.519
40.526
40.543
40.559
40.582
40.604
40.632
40.641
40.636
40.625
40.636
40.653
40.667
40.667
40.667
40.664
40.657
40.648
40.655
40.685
40.729
40.761
40.765
40.758
40.762
40.775
40.785
40.78
40.773
40.775
40.791
40.819
40.843
40.848
40.84
40.837
40.849
40.857
40.857
40.854
40.871
40.891
40.91
40.909
40.907
40.903
40.918
40.94
40.96
40.963
40.973
40.992
41.004
40.997
40.991
41.011
41.042
41.072
41.074
41.065
41.04
41.037
41.047
41.06
41.048
41.034
41.04
41.055
41.052
41.022
41.005
41.008
41.023
41.036
41.042
41.05
41.039
41.03
41.024
41.036
41.043
41.041
41.023
41.021
41.006
41.004
40.993
41.004
41.003
41
40.994
41.005
41.008
40.992
40.964
40.938
40.933
40.947
40.989
41.021
41.036
41.017
41.003
40.989
40.992
40.988
40.997
41.001
41.004
40.996
40.989
40.987
40.985
40.975
40.951
40.934
40.932
40.939
40.94
40.936
40.934
40.942
40.952
40.957
40.946
40.922
40.895
40.873
40.871
40.885
40.909
40.926
40.922
40.907
40.876
40.864
40.862
40.891
40.914
40.931
40.931
40.923
40.916
40.919
40.921
40.921
40.912
40.903
40.907
40.91
40.929
40.942
40.967
40.986
40.992
40.995
40.993
40.999
40.992
40.986
40.973
40.966
40.963
40.975
40.992
41.01
41.019
41.028
41.044
41.065
41.077
41.073
41.075
41.086
41.103
41.096
41.077
41.054
41.042
41.03
41.01
41.003
41.01
41.036
41.055
41.07
41.094
41.11
41.125
41.117
41.115
41.105
41.099
41.097
41.111
41.131
41.137
41.131
41.12
41.113
41.103
41.105
41.121
41.138
41.133
41.119
41.119
41.145
41.184
41.212
41.228
41.22
41.202
41.173
41.145
41.127
41.116
41.116
41.114
41.117
41.119
41.115
41.103
41.087
41.096
41.128
41.158
41.17
41.158
41.163
41.172
41.193
41.192
41.178
41.157
41.143
41.134
41.123
41.122
41.127
41.138
41.155
41.174
41.192
41.19
41.178
41.156
41.146
41.14
41.164
41.193
41.232
41.232
41.229
41.219
41.226
41.24
41.263
41.29
41.298
41.276
41.25
41.235
41.265
41.289
41.317
41.308
41.312
41.307
41.32
41.334
41.361
41.391
41.404
41.407
41.397
41.397
41.406
41.423
41.437
41.433
41.422
41.423
41.447
41.49
41.524
41.557
41.572
41.576
41.573
41.565
41.565
41.558
41.562
41.581
41.613
41.636
41.638
41.636
41.647
41.653
41.642
41.604
41.58
41.586
41.613
41.649
41.669
41.696
41.711
41.726
41.728
41.723
41.723
41.717
41.72
41.718
41.742
41.759
41.776
41.769
41.772
41.771
41.778
41.778
41.796
41.828
41.866
41.888
41.891
41.891
41.888
41.88
41.859
41.84
41.827
41.82
41.823
41.822
41.821
41.804
41.8
41.803
41.824
41.843
41.86
41.875
41.877
41.878
41.864
41.853
41.828
41.817
41.813
41.826
41.83
41.825
41.813
41.803
41.8
41.796
41.794
41.784
41.783
41.788
41.803
41.812
41.803
41.786
41.764
41.754
41.74
41.716
41.696
41.686
41.703
41.717
41.737
41.745
41.762
41.757
41.742
41.701
41.674
41.663
41.676
41.697
41.717
41.725
41.713
41.692
41.678
41.676
41.672
41.665
41.662
41.675
41.693
41.709
41.714
41.707
41.688
41.666
41.657
41.663
41.682
41.698
41.709
41.71
41.711
41.705
41.697
41.676
41.666
41.648
41.625
41.599
41.598
41.623
41.652
41.662
41.667
41.675
41.696
41.71
41.726
41.732
41.746
41.757
41.777
41.774
41.766
41.744
41.751
41.761
41.791
41.8
41.796
41.765
41.743
41.743
41.764
41.787
41.793
41.784
41.778
41.785
41.819
41.843
41.864
41.871
41.893
41.909
41.92
41.911
41.899
41.888
41.884
41.896
41.91
41.922
41.922
41.918
41.921
41.928
41.943
41.959
41.975
41.985
41.992
41.993
41.99
41.986
41.989
42.001
42.016
42.025
42.02
42.001
41.976
41.958
41.95
41.959
41.978
42.007
42.033
42.058
42.067
42.062
42.054
42.063
42.083
42.085
42.065
42.028
42.008
42.008
42.029
42.065
42.085
42.086
42.063
42.039
42.032
42.033
42.05
42.056
42.065
42.064
42.058
42.052
42.045
42.059
42.071
42.091
42.083
42.084
42.067
42.061
42.038
42.03
42.029
42.041
42.061
42.078
42.086
42.069
42.038
42.021
42.035
42.072
42.09
42.089
42.075
42.074
42.065
42.053
42.024
42.011
42.007
42.005
41.995
41.984
41.986
41.99
41.993
41.984
41.983
41.977
41.97
41.951
41.935
41.934
41.939
41.951
41.967
41.994
42.011
41.998
41.959
41.913
41.875
41.854
41.844
41.847
41.852
41.862
41.873
41.885
41.892
41.907
41.907
41.902
41.86
41.816
41.772
41.765
41.791
41.823
41.831
41.806
41.787
41.792
41.795
41.789
41.77
41.775
41.764
41.746
41.705
41.699
41.703
41.724
41.723
41.721
41.719
41.706
41.691
41.672
41.681
41.704
41.728
41.735
41.714
41.68
41.648
41.64
41.664
41.688
41.703
41.702
41.705
41.695
41.677
41.651
41.642
41.627
41.601
41.577
41.58
41.601
41.612
41.602
41.587
41.583
41.587
41.591
41.577
41.559
41.537
41.53
41.533
41.553
41.575
41.586
41.58
41.56
41.533
41.504
41.49
41.492
41.493
41.487
41.488
41.503
41.513
41.495
41.465
41.444
41.443
41.456
41.469
41.475
41.478
41.481
41.477
41.45
41.411
41.385
41.388
41.398
41.412
41.422
41.438
41.443
41.439
41.437
41.44
41.451
41.445
41.433
41.42
41.419
41.424
41.438
41.451
41.462
41.457
41.448
41.433
41.417
41.397
41.382
41.369
41.352
41.352
41.371
41.403
41.415
41.418
41.413
41.408
41.393
41.385
41.374
41.363
41.345
41.341
41.353
41.367
41.369
41.362
41.361
41.365
41.386
41.403
41.427
41.433
41.427
41.405
41.38
41.368
41.362
41.357
41.347
41.336
41.34
41.354
41.386
41.415
41.432
41.428
41.413
41.397
41.389
41.393
41.386
41.383
41.376
41.388
41.404
41.413
41.418
41.418
41.432
41.447
41.466
41.474
41.486
41.487
41.509
41.521
41.539
41.527
41.509
41.48
41.458
41.438
41.422
41.418
41.435
41.46
41.489
41.5
41.498
41.471
41.448
41.444
41.47
41.496
41.503
41.488
41.48
41.476
41.486
41.489
41.504
41.518
41.54
41.555
41.553
41.548
41.539
41.538
41.528
41.509
41.497
41.488
41.506
41.518
41.533
41.529
41.512
41.497
41.479
41.473
41.467
41.48
41.503
41.52
41.518
41.489
41.466
41.459
41.474
41.487
41.495
41.502
41.501
41.502
41.494
41.495
41.489
41.49
41.496
41.515
41.518
41.512
41.499
41.505
41.509
41.511
41.506
41.504
41.501
41.5
41.494
41.491
41.486
41.485
41.463
41.439
41.419
41.407
41.398
41.38
41.387
41.394
41.401
41.384
41.36
41.339
41.343
41.355
41.365
41.348
41.334
41.329
41.343
41.356
41.353
41.335
41.301
41.29
41.284
41.298
41.29
41.295
41.288
41.3
41.288
41.286
41.269
41.256
41.234
41.216
41.201
41.191
41.177
41.172
41.173
41.179
41.173
41.158
41.143
41.135
41.128
41.132
41.136
41.14
41.116
41.083
41.036
41.009
40.982
40.976
40.965
40.954
40.928
40.911
40.908
40.911
40.899
40.876
40.857
40.835
40.821
40.806
40.815
40.807
40.796
40.754
40.719
40.662
40.611
40.557
40.534
40.527
40.528
40.521
40.5
40.468
40.435
40.407
40.383
40.347
40.313
40.281
40.254
40.217
40.173
40.123
40.075
40.028
39.99
39.957
39.926
39.893
39.864
39.833
39.803
39.768
39.728
39.679
39.633
39.589
39.555
39.509
39.468
39.423
39.389
39.348
39.306
39.253
39.197
39.132
39.067
39.005
38.952
38.908
38.868
38.824
38.768
38.717
38.669
38.632
38.59
38.539
38.474
38.397
38.339
38.296
38.262
38.211
38.142
38.064
37.987
37.922
37.853
37.777
37.684
37.592
37.525
37.48
37.451
37.404
37.344
37.286
37.237
37.193
37.141
37.08
37.012
36.936
36.862
36.792
36.736
36.691
36.648
36.59
36.504
36.416
36.347
36.295
36.239
36.167
36.103
36.053
36.004
35.933
35.835
35.747
35.671
35.623
35.572
35.522
35.459
35.392
35.328
35.273
35.222
35.177
35.129
35.075
34.987
34.895
34.826
34.793
34.759
34.701
34.634
34.581
34.532
34.486
34.429
34.37
34.298
34.225
34.162
34.106
34.048
33.987
33.928
33.877
33.825
33.787
33.747
33.699
33.627
33.557
33.5
33.464
33.431
33.404
33.366
33.317
33.26
33.206
33.165
33.129
33.092
33.049
32.999
32.946
32.885
32.825
32.759
32.705
32.646
32.617
32.601
32.603
32.581
32.523
32.463
32.413
32.387
32.349
32.31
32.267
32.238
32.199
32.153
32.089
32.047
32.019
32.012
31.989
31.961
31.927
31.903
31.88
31.858
31.828
31.801
31.763
31.718
31.66
31.615
31.579
31.547
31.516
31.48
31.455
31.435
31.434
31.427
31.408
31.37
31.343
31.327
31.309
31.265
31.211
31.173
31.162
31.158
31.151
31.129
31.098
31.062
31.034
31.013
30.984
30.952
30.915
30.891
30.865
30.852
30.835
30.828
30.807
30.786
30.755
30.733
30.719
30.711
30.701
30.685
30.667
30.653
30.633
30.606
30.565
30.536
30.515
30.51
30.505
30.507
30.506
30.5
30.484
30.461
30.438
30.416
30.409
30.402
30.389
30.364
30.333
30.31
30.294
30.292
30.3
30.308
30.32
30.317
30.309
30.277
30.25
30.225
30.216
30.203
30.184
30.161
30.137
30.124
30.12
30.122
30.122
30.1
30.085
30.074
30.084
30.088
30.088
30.076
30.065
30.056
30.059
30.064
30.065
30.047
30.011
29.976
29.963
29.977
30.001
30.013
30.004
29.985
29.968
29.963
29.959
29.953
29.935
29.916
29.904
29.901
29.892
29.875
29.852
29.847
29.849
29.856
29.847
29.835
29.82
29.814
29.81
29.816
29.817
29.814
29.792
29.768
29.743
29.734
29.729
29.724
29.71
29.697
29.689
29.676
29.655
29.631
29.618
29.613
29.602
29.581
29.561
29.553
29.555
29.552
29.546
29.539
29.534
29.518
29.492
29.47
29.459
29.449
29.433
29.41
29.388
29.374
29.37
29.37
29.359
29.334
29.297
29.268
29.243
29.235
29.225
29.225
29.215
29.207
29.185
29.168
29.151
29.14
29.123
29.107
29.09
29.076
29.05
29.029
29.005
28.989
28.966
28.945
28.923
28.898
28.872
28.848
28.828
28.811
28.791
28.771
28.756
28.739
28.721
28.692
28.674
28.666
28.656
28.632
28.591
28.556
28.534
28.526
28.526
28.513
28.504
28.486
28.473
28.443
28.415
28.389
28.381
28.369
28.359
28.344
28.337
28.323
28.303
28.273
28.256
28.239
28.219
28.173
28.131
28.099
28.083
28.075
28.079
28.091
28.097
28.079
28.051
28.014
27.985
27.955
27.933
27.918
27.912
27.908
27.903
27.892
27.876
27.848
27.824
27.81
27.804
27.798
27.782
27.77
27.758
27.749
27.733
27.71
27.69
27.672
27.667
27.655
27.64
27.62
27.615
27.613
27.604
27.581
27.558
27.532
27.509
27.486
27.474
27.469
27.468
27.468
27.463
27.458
27.446
27.438
27.426
27.411
27.397
27.395
27.399
27.395
27.37
27.344
27.313
27.302
27.291
27.293
27.288
27.284
27.275
27.261
27.246
27.233
27.232
27.226
27.222
27.21
27.206
27.196
27.181
27.164
27.146
27.145
27.138
27.135
27.108
27.084
27.066
27.07
27.073
27.063
27.042
27.029
27.025
27.033
27.038
27.049
27.048
27.035
27.014
26.998
26.988
26.973
26.952
26.938
26.936
26.938
26.931
26.911
26.888
26.868
26.863
26.869
26.879
26.877
26.861
26.837
26.824
26.816
26.802
26.778
26.758
26.753
26.759
26.757
26.746
26.73
26.722
26.72
26.714
26.711
26.704
26.697
26.677
26.653
26.634
26.611
26.599
26.578
26.57
26.558
26.559
26.561
26.564
26.552
26.536
26.52
26.514
26.512
26.517
26.515
26.509
26.495
26.491
26.489
26.485
26.459
26.439
26.432
26.446
26.448
26.438
26.421
26.412
26.404
26.391
26.373
26.359
26.351
26.342
26.332
26.326
26.332
26.336
26.325
26.302
26.281
26.279
26.282
26.284
26.274
26.253
26.228
26.208
26.195
26.188
26.189
26.194
26.196
26.184
26.162
26.143
26.129
26.127
26.119
26.119
26.118
26.131
26.136
26.142
26.13
26.117
26.1
26.094
26.094
26.094
26.084
26.073
26.064
26.063
26.054
26.042
26.033
26.031
26.03
26.023
26.019
26.017
26.009
25.994
25.974
25.963
25.958
25.967
25.968
25.965
25.953
25.945
25.936
25.933
25.931
25.931
25.92
25.9
25.876
25.858
25.86
25.865
25.862
25.838
25.819
25.812
25.827
25.841
25.85
25.845
25.834
25.824
25.815
25.811
25.806
25.791
25.774
25.76
25.768
25.781
25.788
25.785
25.77
25.758
25.749
25.744
25.734
25.717
25.705
25.697
25.692
25.685
25.673
25.661
25.646
25.632
25.614
25.604
25.606
25.615
25.616
25.607
25.6
25.603
25.61
25.606
25.597
25.588
25.58
25.564
25.546
25.531
25.523
25.517
25.519
25.527
25.536
25.53
25.516
25.501
25.498
25.494
25.488
25.479
25.474
25.473
25.463
25.449
25.439
25.433
25.432
25.43
25.44
25.452
25.459
25.452
25.442
25.431
25.422
25.413
25.407
25.404
25.398
25.388
25.364
25.339
25.324
25.324
25.331
25.335
25.325
25.316
25.306
25.317
25.324
25.327
25.308
25.285
25.264
25.253
25.251
25.253
25.26
25.266
25.274
25.267
25.26
25.252
25.259
25.263
25.259
25.247
25.234
25.23
25.232
25.231
25.233
25.237
25.246
25.244
25.235
25.224
25.223
25.218
25.209
25.181
25.159
25.144
25.151
25.157
25.157
25.15
25.149
25.162
25.172
25.175
25.165
25.157
25.146
25.138
25.13
25.131
25.138
25.135
25.124
25.104
25.098
25.096
25.099
25.09
25.085
25.083
25.087
25.086
25.075
25.066
25.058
25.06
25.057
25.051
25.038
25.027
25.021
25.022
25.028
25.025
25.014
25.006
25.006
25.009
25.004
24.995
24.984
24.974
24.967
24.968
24.976
24.984
24.982
24.974
24.965
24.955
24.947
24.938
24.946
24.953
24.956
24.943
24.932
24.925
24.922
24.917
24.908
24.903
24.904
24.912
24.913
24.902
24.889
24.886
24.896
24.902
24.894
24.875
24.853
24.846
24.843
24.849
24.849
24.852
24.851
24.851
24.846
24.836
24.82
24.797
24.772
24.757
24.759
24.771
24.778
24.778
24.767
24.765
24.766
24.771
24.763
24.753
24.744
24.734
24.715
24.693
24.689
24.693
24.7
24.688
24.671
24.64
24.616
24.599
24.604
24.613
24.617
24.611
24.605
24.599
24.593
24.577
24.569
24.564
24.582
24.598
24.615
24.608
24.593
24.568
24.557
24.558
24.572
24.577
24.561
24.535
24.51
24.493
24.486
24.489
24.501
24.5
24.491
24.479
24.484
24.488
24.491
24.479
24.465
24.453
24.453
24.469
24.476
24.477
24.462
24.457
24.454
24.456
24.459
24.462
24.461
24.457
24.454
24.45
24.435
24.416
24.397
24.388
24.381
24.386
24.396
24.415
24.422
24.42
24.412
24.403
24.394
24.375
24.362
24.351
24.354
24.357
24.361
24.366
24.361
24.353
24.334
24.321
24.321
24.332
24.348
24.353
24.368
24.377
24.387
24.379
24.366
24.35
24.345
24.342
24.339
24.322
24.311
24.308
24.315
24.313
24.309
24.306
24.302
24.295
24.282
24.276
24.281
24.292
24.296
24.288
24.284
24.286
24.296
24.297
24.294
24.291
24.293
24.292
24.286
24.263
24.25
24.246
24.26
24.269
24.264
24.257
24.251
24.253
24.253
24.252
24.251
24.243
24.232
24.225
24.229
24.24
24.244
24.235
24.217
24.199
24.196
24.199
24.209
24.217
24.228
24.24
24.236
24.225
24.205
24.192
24.178
24.175
24.178
24.19
24.197
24.193
24.176
24.158
24.148
24.151
24.155
24.154
24.143
24.138
24.139
24.146
24.149
24.14
24.13
24.107
24.085
24.067
24.071
24.086
24.097
24.097
24.092
24.088
24.079
24.071
24.056
24.05
24.05
24.067
24.08
24.08
24.075
24.069
24.073
24.072
24.066
24.052
24.036
24.022
24.011
24.004
23.992
23.984
23.982
23.988
23.993
23.986
23.976
23.964
23.958
23.954
23.945
23.939
23.931
23.932
23.925
23.921
23.918
23.916
23.907
23.898
23.892
23.892
23.891
23.89
23.885
23.873
23.86
23.85
23.844
23.832
23.822
23.813
23.816
23.821
23.831
23.831
23.819
23.798
23.783
23.775
23.769
23.76
23.752
23.749
23.756
23.761
23.758
23.748
23.738
23.729
23.718
23.711
23.711
23.719
23.723
23.717
23.704
23.695
23.695
23.695
23.694
23.695
23.701
23.707
23.701
23.686
23.673
23.664
23.669
23.679
23.69
23.698
23.699
23.695
23.676
23.653
23.637
23.633
23.635
23.629
23.625
23.632
23.65
23.66
23.653
23.63
23.607
23.594
23.583
23.582
23.584
23.603
23.626
23.646
23.656
23.647
23.627
23.599
23.592
23.598
23.607
23.602
23.591
23.584
23.58
23.578
23.583
23.6
23.614
23.621
23.613
23.603
23.594
23.592
23.591
23.582
23.569
23.562
23.566
23.572
23.572
23.568
23.57
23.568
23.564
23.548
23.54
23.539
23.545
23.553
23.558
23.563
23.569
23.58
23.594
23.598
23.589
23.574
23.567
23.568
23.573
23.567
23.548
23.522
23.499
23.491
23.496
23.501
23.507
23.509
23.532
23.55
23.567
23.556
23.543
23.525
23.521
23.52
23.526
23.528
23.524
23.513
23.511
23.524
23.54
23.542
23.532
23.523
23.522
23.529
23.538
23.547
23.55
23.535
23.516
23.49
23.48
23.467
23.464
23.462
23.467
23.464
23.455
23.455
23.467
23.475
23.471
23.456
23.448
23.437
23.44
23.445
23.459
23.466
23.469
23.468
23.462
23.457
23.447
23.442
23.434
23.433
23.426
23.416
23.4
23.392
23.395
23.398
23.395
23.389
23.388
23.396
23.401
23.404
23.401
23.395
23.384
23.372
23.366
23.361
23.356
23.351
23.352
23.356
23.36
23.361
23.359
23.363
23.37
23.379
23.378
23.369
23.358
23.343
23.332
23.316
23.32
23.323
23.322
23.301
23.279
23.271
23.276
23.29
23.304
23.315
23.321
23.32
23.313
23.303
23.297
23.291
23.282
23.268
23.259
23.258
23.256
23.257
23.253
23.254
23.25
23.245
23.239
23.231
23.234
23.235
23.24
23.238
23.236
23.233
23.226
23.221
23.221
23.221
23.215
23.207
23.203
23.204
23.204
23.204
23.203
23.2
23.193
23.188
23.193
23.201
23.201
23.193
23.186
23.191
23.196
23.194
23.183
23.173
23.171
23.172
23.17
23.16
23.142
23.127
23.128
23.138
23.147
23.148
23.143
23.142
23.134
23.133
23.126
23.125
23.125
23.136
23.145
23.148
23.136
23.13
23.131
23.138
23.138
23.132
23.128
23.127
23.119
23.109
23.099
23.108
23.117
23.124
23.114
23.102
23.092
23.086
23.086
23.087
23.099
23.104
23.11
23.1
23.095
23.087
23.086
23.08
23.07
23.064
23.065
23.077
23.084
23.09
23.082
23.074
23.067
23.072
23.08
23.085
23.078
23.068
23.05
23.041
23.036
23.041
23.041
23.032
23.013
22.998
22.995
23.006
23.016
23.022
23.024
23.025
23.022
23.016
23.012
23.019
23.026
23.032
23.032
23.033
23.038
23.04
23.041
23.028
23.011
23.002
23.002
23.011
22.999
22.98
22.951
22.939
22.937
22.946
22.953
22.955
22.958
22.96
22.962
22.965
22.976
22.986
22.99
22.985
22.976
22.96
22.95
22.945
22.956
22.965
22.971
22.965
22.961
22.95
22.948
22.947
22.962
22.97
22.974
22.968
22.967
22.967
22.965
22.956
22.952
22.954
22.965
22.972
22.975
22.972
22.969
22.969
22.97
22.973
22.966
22.962
22.96
22.971
22.974
22.965
22.948
22.936
22.935
22.937
22.938
22.933
22.928
22.919
22.911
22.909
22.918
22.932
22.942
22.941
22.929
22.917
22.919
22.928
22.931
22.92
22.902
22.892
22.892
22.904
22.919
22.929
22.935
22.935
22.939
22.943
22.945
22.947
22.947
22.947
22.943
22.943
22.948
22.948
22.932
22.904
22.889
22.887
22.894
22.89
22.886
22.875
22.869
22.864
22.869
22.871
22.877
22.875
22.88
22.878
22.884
22.895
22.912
22.921
22.907
22.883
22.865
22.862
22.859
22.861
22.864
22.876
22.879
22.879
22.876
22.874
22.866
22.854
22.843
22.848
22.855
22.862
22.859
22.861
22.859
22.856
22.845
22.836
22.823
22.816
22.806
22.804
22.801
22.807
22.814
22.824
22.828
22.83
22.827
22.82
22.807
22.798
22.791
22.789
22.781
22.776
22.767
22.758
22.747
22.738
22.736
22.74
22.75
22.759
22.755
22.742
22.721
22.713
22.712
22.723
22.73
22.732
22.725
22.713
22.703
22.699
22.709
22.718
22.713
22.693
22.676
22.668
22.663
22.664
22.664
22.678
22.678
22.681
22.67
22.666
22.658
22.663
22.666
22.663
22.648
22.632
22.63
22.639
22.651
22.654
22.644
22.629
22.623
22.624
22.619
22.596
22.573
22.564
22.571
22.586
22.598
22.597
22.578
22.548
22.532
22.538
22.552
22.556
22.543
22.528
22.515
22.516
22.519
22.521
22.518
22.514
22.515
22.518
22.52
22.521
22.524
22.523
22.524
22.517
22.508
22.496
22.48
22.466
22.456
22.451
22.452
22.443
22.438
22.433
22.442
22.447
22.449
22.445
22.437
22.431
22.429
22.435
22.444
22.447
22.442
22.427
22.408
22.391
22.374
22.366
22.368
22.383
22.391
22.385
22.372
22.359
22.351
22.339
22.328
22.313
22.299
22.296
22.306
22.322
22.32
22.308
22.293
22.289
22.286
22.283
22.279
22.278
22.272
22.264
22.254
22.249
22.246
22.246
22.247
22.244
22.233
22.218
22.205
22.199
22.189
22.179
22.171
22.17
22.171
22.164
22.149
22.13
22.118
22.114
22.121
22.129
22.142
22.142
22.133
22.115
22.098
22.085
22.07
22.068
22.073
22.082
22.078
22.072
22.068
22.068
22.063
22.052
22.046
22.041
22.032
22.014
21.994
21.978
21.972
21.974
21.986
21.996
22.002
22.001
22.002
22.007
22.01
22.002
21.99
21.974
21.964
21.955
21.951
21.951
21.947
21.944
21.93
21.922
21.913
21.92
21.933
21.944
21.944
21.937
21.928
21.927
21.924
21.918
21.902
21.897
21.899
21.91
21.906
21.894
21.873
21.864
21.866
21.877
21.884
21.888
21.886
21.886
21.882
21.879
21.864
21.852
21.837
21.836
21.835
21.844
21.851
21.855
21.85
21.841
21.832
21.82
21.817
21.818
21.821
21.816
21.816
21.82
21.828
21.824
21.816
21.805
21.793
21.783
21.771
21.776
21.79
21.809
21.819
21.821
21.819
21.815
21.811
21.805
21.79
21.775
21.766
21.77
21.774
21.781
21.782
21.781
21.769
21.752
21.739
21.738
21.749
21.761
21.767
21.767
21.759
21.752
21.748
21.747
21.744
21.74
21.744
21.751
21.759
21.761
21.755
21.74
21.723
21.709
21.702
21.696
21.693
21.694
21.694
21.692
21.69
21.694
21.707
21.711
21.703
21.689
21.682
21.681
21.679
21.676
21.675
21.672
21.667
21.663
21.664
21.67
21.671
21.672
21.669
21.669
21.666
21.666
21.672
21.682
21.69
21.686
21.675
21.659
21.647
21.639
21.639
21.641
21.65
21.659
21.667
21.671
21.671
21.665
21.658
21.658
21.669
21.683
21.689
21.679
21.661
21.64
21.636
21.64
21.647
21.647
21.645
21.653
21.669
21.683
21.684
21.677
21.666
21.659
21.655
21.656
21.657
21.662
21.666
21.674
21.67
21.658
21.643
21.643
21.653
21.668
21.677
21.678
21.677
21.672
21.677
21.679
21.684
21.684
21.688
21.69
21.695
21.693
21.693
21.689
21.686
21.682
21.679
21.677
21.669
21.654
21.644
21.654
21.678
21.7
21.7
21.688
21.671
21.669
21.674
21.686
21.694
21.698
21.697
21.7
21.708
21.712
21.708
21.698
21.693
21.697
21.701
21.709
21.717
21.728
21.741
21.749
21.754
21.739
21.728
21.718
21.727
21.736
21.747
21.743
21.737
21.726
21.72
21.716
21.719
21.729
21.741
21.747
21.751
21.756
21.763
21.764
21.764
21.758
21.75
21.741
21.741
21.75
21.761
21.775
21.785
21.786
21.771
21.757
21.759
21.771
21.78
21.776
21.765
21.751
21.741
21.74
21.74
21.741
21.739
21.742
21.751
21.76
21.768
21.776
21.787
21.79
21.78
21.762
21.75
21.751
21.756
21.754
21.75
21.743
21.752
21.766
21.784
21.791
21.793
21.793
21.792
21.787
21.78
21.776
21.776
21.773
21.769
21.765
21.769
21.774
21.784
21.785
21.788
21.78
21.781
21.773
21.771
21.767
21.766
21.764
21.756
21.761
21.766
21.776
21.769
21.763
21.762
21.766
21.772
21.78
21.792
21.804
21.808
21.805
21.797
21.79
21.783
21.778
21.775
21.773
21.766
21.763
21.771
21.79
21.805
21.809
21.8
21.783
21.77
21.772
21.79
21.801
21.8
21.785
21.772
21.761
21.762
21.768
21.777
21.781
21.787
21.797
21.805
21.807
21.796
21.79
21.787
21.786
21.781
21.774
21.775
21.781
21.787
21.789
21.787
21.788
21.791
21.795
21.795
21.794
21.793
21.792
21.785
21.781
21.783
21.792
21.798
21.797
21.797
21.803
21.811
21.811
21.805
21.8
21.795
21.798
21.8
21.809
21.81
21.809
21.799
21.79
21.787
21.794
21.802
21.8
21.79
21.78
21.784
21.794
21.806
21.812
21.817
21.821
21.828
21.838
21.842
21.835
21.812
21.795
21.788
21.803
21.821
21.837
21.841
21.839
21.837
21.837
21.838
21.838
21.84
21.846
21.849
21.85
21.851
21.859
21.867
21.871
21.868
21.864
21.858
21.853
21.846
21.841
21.845
21.859
21.87
21.867
21.855
21.85
21.852
21.86
21.86
21.857
21.848
21.84
21.838
21.841
21.844
21.845
21.846
21.852
21.866
21.883
21.889
21.877
21.864
21.855
21.859
21.859
21.863
21.866
21.875
21.881
21.884
21.885
21.883
21.878
21.87
21.863
21.859
21.866
21.877
21.894
21.895
21.887
21.874
21.871
21.874
21.882
21.883
21.876
21.863
21.857
21.854
21.853
21.85
21.853
21.856
21.858
21.861
21.868
21.88
21.886
21.887
21.88
21.874
21.87
21.875
21.882
21.886
21.883
21.874
21.867
21.865
21.877
21.889
21.902
21.91
21.921
21.935
21.936
21.93
21.915
21.909
21.899
21.895
21.891
21.89
21.888
21.894
21.905
21.918
21.918
21.914
21.905
21.904
21.9
21.905
21.903
21.898
21.886
21.887
21.892
21.898
21.889
21.884
21.886
21.907
21.924
21.93
21.918
21.908
21.904
21.904
21.904
21.904
21.911
21.925
21.935
21.936
21.923
21.911
21.899
21.9
21.904
21.911
21.915
21.919
21.921
21.921
21.918
21.919
21.92
21.911
21.9
21.892
21.901
21.917
21.927
21.922
21.906
21.899
21.901
21.915
21.92
21.924
21.921
21.929
21.933
21.937
21.942
21.948
21.959
21.953
21.939
21.916
21.915
21.924
21.942
21.955
21.977
21.988
21.986
21.971
21.964
21.969
21.974
21.968
21.957
21.951
21.95
21.951
21.951
21.953
21.965
21.982
21.994
21.988
21.971
21.957
21.954
21.958
21.963
21.962
21.964
21.966
21.977
21.988
21.996
21.994
21.986
21.974
21.964
21.959
21.956
21.967
21.974
21.978
21.965
21.956
21.953
21.959
21.962
21.964
21.964
21.96
21.955
21.949
21.946
21.939
21.938
21.943
21.963
21.976
21.989
21.995
21.999
21.987
21.968
21.956
21.954
21.958
21.963
21.972
21.986
21.993
21.999
21.995
21.99
21.982
21.977
21.977
21.968
21.962
21.958
21.968
21.982
21.992
21.995
21.987
21.979
21.973
21.974
21.975
21.972
21.965
21.96
21.957
21.961
21.966
21.97
21.977
21.983
21.988
21.978
21.967
21.955
21.961
21.97
21.988
21.994
21.995
21.987
21.98
21.977
21.977
21.986
21.997
22.011
22.017
22.019
22.015
22.008
21.996
21.975
21.952
21.938
21.942
21.955
21.965
21.968
21.966
21.965
21.964
21.967
21.967
21.97
21.972
21.975
21.971
21.968
21.971
21.985
21.993
21.996
21.991
21.99
21.99
21.996
22.006
22.015
22.018
22.011
22.001
21.985
21.982
21.975
21.972
21.959
21.955
21.959
21.969
21.977
21.985
21.996
21.999
21.994
21.974
21.961
21.952
21.952
21.952
21.953
21.951
21.941
21.936
21.942
21.951
21.957
21.961
21.964
21.97
21.969
21.965
21.956
21.941
21.935
21.935
21.952
21.961
21.966
21.961
21.961
21.967
21.971
21.967
21.959
21.955
21.959
21.967
21.971
21.963
21.952
21.949
21.962
21.975
21.986
21.986
21.976
21.958
21.941
21.932
21.936
21.949
21.968
21.976
21.975
21.971
21.97
21.97
21.969
21.976
21.982
21.986
21.983
21.98
21.969
21.956
21.937
21.93
21.929
21.94
21.946
21.948
21.938
21.93
21.926
21.934
21.948
21.952
21.95
21.944
21.945
21.947
21.949
21.95
21.952
21.951
21.948
21.941
21.929
21.915
21.903
21.9
21.899
21.904
21.907
21.92
21.934
21.946
21.941
21.93
21.922
21.923
21.927
21.926
21.923
21.913
21.904
21.893
21.892
21.894
21.899
21.903
21.913
21.927
21.935
21.935
21.93
21.921
21.921
21.918
21.918
21.906
21.9
21.9
21.914
21.925
21.928
21.916
21.904
21.898
21.908
21.918
21.929
21.934
21.941
21.942
21.934
21.92
21.901
21.893
21.891
21.909
21.919
21.926
21.911
21.899
21.882
21.881
21.887
21.908
21.92
21.927
21.921
21.925
21.932
21.945
21.947
21.944
21.945
21.954
21.961
21.962
21.961
21.957
21.946
21.931
21.92
21.913
21.907
21.906
21.911
21.919
21.922
21.924
21.93
21.937
21.938
21.93
21.918
21.912
21.921
21.936
21.952
21.951
21.95
21.948
21.958
21.965
21.963
21.957
21.947
21.945
21.94
21.943
21.955
21.975
21.987
21.984
21.976
21.963
21.957
21.951
21.955
21.955
21.955
21.961
21.969
21.978
21.971
21.96
21.945
21.94
21.935
21.937
21.942
21.957
21.963
21.962
21.954
21.951
21.949
21.948
21.948
21.951
21.953
21.948
21.941
21.936
21.938
21.931
21.923
21.917
21.926
21.932
21.943
21.947
21.959
21.968
21.978
21.981
21.98
21.971
21.965
21.962
21.972
21.979
21.981
21.967
21.95
21.94
21.943
21.951
21.95
21.94
21.928
21.928
21.942
21.957
21.965
21.957
21.945
21.932
21.921
21.912
21.904
21.9
21.905
21.918
21.933
21.942
21.942
21.934
21.92
21.911
21.906
21.914
21.916
21.913
21.906
21.911
21.929
21.947
21.952
21.942
21.923
21.903
21.892
21.895
21.907
21.914
21.912
21.903
21.893
21.88
21.869
21.854
21.851
21.851
21.863
21.867
21.877
21.885
21.903
21.914
21.917
21.91
21.898
21.887
21.88
21.885
21.897
21.913
21.921
21.922
21.914
21.906
21.899
21.894
21.886
21.877
21.869
21.873
21.883
21.893
21.899
21.901
21.902
21.902
21.904
21.906
21.901
21.895
21.9
21.916
21.93
21.931
21.924
21.928
21.938
21.944
21.929
21.908
21.895
21.899
21.905
21.911
21.918
21.928
21.931
21.924
21.918
21.92
21.928
21.935
21.937
21.932
21.925
21.921
21.922
21.929
21.944
21.961
21.974
21.973
21.963
21.95
21.951
21.966
21.984
21.994
21.99
21.989
21.994
22.008
22.017
22.019
22.016
22.007
21.999
21.994
21.999
22.006
22.001
21.986
21.971
21.966
21.972
21.982
21.994
22.004
22.006
22.002
21.995
21.989
21.988
21.99
21.997
22
22.003
22.002
22.003
22.007
22.018
22.026
22.031
22.024
22.019
22.011
22.013
22.017
22.027
22.029
22.029
22.026
22.022
22.012
21.992
21.973
21.958
21.961
21.971
21.988
21.993
21.994
21.991
21.991
21.992
21.992
21.99
21.982
21.974
21.969
21.967
21.955
21.938
21.925
21.93
21.94
21.956
21.975
21.993
21.997
21.989
21.982
21.985
21.991
21.989
21.971
21.949
21.928
21.924
21.925
21.934
21.931
21.929
21.922
21.917
21.909
21.905
21.911
21.922
21.934
21.938
21.928
21.908
21.887
21.88
21.888
21.906
21.916
21.911
21.893
21.885
21.888
21.897
21.901
21.904
21.904
21.906
21.909
21.923
21.935
21.943
21.937
21.929
21.923
21.924
21.928
21.925
21.92
21.915
21.92
21.927
21.935
21.937
21.94
21.943
21.942
21.939
21.932
21.932
21.935
21.94
21.934
21.919
21.904
21.901
21.911
21.922
21.928
21.929
21.926
21.926
21.929
21.941
21.956
21.962
21.955
21.942
21.933
21.93
21.934
21.947
21.97
21.982
21.981
21.963
21.958
21.954
21.958
21.956
21.96
21.968
21.976
21.986
21.995
21.997
21.989
21.975
21.966
21.966
21.974
21.979
21.977
21.97
21.965
21.961
21.957
21.956
21.954
21.954
21.957
21.965
21.974
21.973
21.972
21.977
21.993
22.008
22.014
22.016
22.014
22.012
22.007
22.008
22.012
22.011
21.999
21.982
21.974
21.98
21.987
21.99
21.985
21.988
21.99
21.99
21.98
21.978
21.985
21.999
22.007
22.013
22.014
22.009
21.994
21.983
21.981
21.99
22.01
22.031
22.048
22.053
22.05
22.038
22.033
22.026
22.028
22.027
22.037
22.046
22.053
22.047
22.034
22.026
22.028
22.04
22.048
22.043
22.025
22.011
22.011
22.021
22.032
22.038
22.04
22.04
22.034
22.033
22.036
22.05
22.057
22.055
22.044
22.034
22.026
22.03
22.044
22.067
22.073
22.068
22.055
22.057
22.058
22.06
22.056
22.061
22.072
22.087
22.093
22.084
22.07
22.057
22.055
22.051
22.056
22.062
22.068
22.063
22.05
22.041
22.036
22.04
22.04
22.044
22.034
22.023
22.009
22.011
22.025
22.045
22.063
22.073
22.076
22.072
22.069
22.073
22.07
22.061
22.037
22.026
22.02
22.017
22.008
21.998
22.007
22.011
22.021
22.018
22.016
22
21.98
21.964
21.961
21.968
21.982
21.992
22.003
21.997
21.981
21.963
21.958
21.966
21.965
21.956
21.938
21.927
21.919
21.918
21.921
21.934
21.943
21.945
21.942
21.94
21.935
21.919
21.908
21.911
21.924
21.928
21.919
21.903
21.895
21.899
21.913
21.919
21.909
21.892
21.876
21.881
21.886
21.902
21.902
21.91
21.906
21.913
21.914
21.928
21.933
21.932
21.913
21.9
21.889
21.89
21.882
21.887
21.887
21.9
21.901
21.903
21.901
21.901
21.905
21.904
21.899
21.888
21.879
21.871
21.866
21.871
21.885
21.899
21.902
21.896
21.893
21.901
21.922
21.943
21.954
21.953
21.946
21.942
21.932
21.923
21.917
21.924
21.931
21.937
21.939
21.944
21.946
21.94
21.934
21.932
21.937
21.937
21.939
21.937
21.939
21.937
21.939
21.944
21.956
21.964
21.963
21.952
21.942
21.936
21.94
21.947
21.96
21.965
21.968
21.966
21.968
21.974
21.971
21.969
21.966
21.974
21.98
21.976
21.964
21.946
21.945
21.946
21.956
21.953
21.95
21.954
21.968
21.991
22
21.998
21.979
21.958
21.939
21.927
21.929
21.937
21.954
21.962
21.966
21.964
21.959
21.949
21.935
21.935
21.949
21.974
21.994
22.004
22.002
21.998
21.991
21.993
21.989
21.983
21.967
21.957
21.959
21.97
21.981
21.977
21.963
21.947
21.938
21.937
21.941
21.945
21.945
21.943
21.932
21.918
21.904
21.901
21.913
21.925
21.934
21.939
21.947
21.955
21.958
21.954
21.942
21.927
21.916
21.917
21.926
21.933
21.934
21.935
21.943
21.95
21.943
21.925
21.905
21.901
21.904
21.907
21.907
21.913
21.928
21.94
21.94
21.929
21.919
21.922
21.927
21.932
21.932
21.939
21.948
21.955
21.947
21.93
21.908
21.896
21.904
21.923
21.947
21.956
21.96
21.958
21.955
21.941
21.924
21.906
21.904
21.906
21.915
21.913
21.906
21.9
21.901
21.906
21.903
21.887
21.875
21.876
21.883
21.898
21.909
21.925
21.926
21.913
21.902
21.891
21.891
21.884
21.878
21.871
21.861
21.859
21.858
21.873
21.881
21.886
21.876
21.871
21.873
21.878
21.875
21.871
21.873
21.884
21.885
21.878
21.864
21.863
21.858
21.851
21.835
21.823
21.823
21.829
21.838
21.838
21.835
21.835
21.839
21.847
21.852
21.851
21.843
21.833
21.833
21.838
21.839
21.833
21.83
21.839
21.856
21.862
21.857
21.84
21.833
21.837
21.856
21.87
21.873
21.873
21.87
21.876
21.882
21.894
21.902
21.904
21.907
21.912
21.929
21.939
21.947
21.94
21.932
21.922
21.914
21.911
21.912
21.921
21.933
21.941
21.941
21.933
21.931
21.943
21.964
21.981
21.987
21.991
21.995
21.997
21.992
21.985
21.984
21.988
21.999
22.012
22.027
22.038
22.041
22.043
22.039
22.034
22.026
22.031
22.046
22.071
22.081
22.077
22.064
22.069
22.086
22.105
22.105
22.1
22.094
22.096
22.1
22.107
22.113
22.114
22.114
22.116
22.121
22.115
22.109
22.105
22.11
22.11
22.105
22.107
22.112
22.127
22.13
22.124
22.1
22.074
22.056
22.049
22.054
22.063
22.075
22.082
22.083
22.071
22.059
22.041
22.026
22
21.993
21.991
22
21.991
21.977
21.964
21.96
21.957
21.94
21.918
21.896
21.882
21.876
21.873
21.863
21.847
21.833
21.828
21.824
21.81
21.79
21.773
21.763
21.76
21.754
21.749
21.734
21.722
21.708
21.702
21.697
21.689
21.673
21.653
21.63
21.613
21.599
21.598
21.594
21.594
21.581
21.566
21.553
21.547
21.542
21.536
21.531
21.528
21.52
21.501
21.48
21.468
21.47
21.477
21.479
21.47
21.458
21.446
21.441
21.44
21.44
21.437
21.428
21.417
21.405
21.401
21.397
21.395
21.385
21.388
21.397
21.409
21.407
21.402
21.4
21.407
21.422
21.432
21.437
21.433
21.43
21.434
21.443
21.456
21.464
21.464
21.463
21.459
21.46
21.459
21.468
21.48
21.493
21.499
21.506
21.516
21.533
21.549
21.565
21.572
21.577
21.581
21.587
21.597
21.601
21.613
21.626
21.649
21.667
21.679
21.679
21.672
21.663
21.664
21.679
21.702
21.725
21.735
21.753
21.762
21.778
21.781
21.793
21.802
21.816
21.823
21.833
21.843
21.854
21.857
21.857
21.855
21.856
21.859
21.868
21.875
21.884
21.889
21.893
21.895
21.895
21.903
21.915
21.928
21.931
21.929
21.933
21.949
21.966
21.974
21.962
21.943
21.924
21.923
21.926
21.932
21.93
21.923
21.911
21.903
21.905
21.921
21.937
21.945
21.94
21.936
21.934
21.927
21.909
21.889
21.872
21.861
21.85
21.847
21.847
21.849
21.848
21.845
21.837
21.823
21.799
21.781
21.775
21.781
21.786
21.782
21.779
21.774
21.772
21.766
21.759
21.747
21.73
21.717
21.709
21.704
21.693
21.689
21.691
21.696
21.693
21.688
21.682
21.676
21.669
21.662
21.662
21.665
21.665
21.659
21.645
21.631
21.612
21.601
21.595
21.604
21.611
21.614
21.61
21.594
21.575
21.556
21.546
21.537
21.532
21.533
21.536
21.54
21.539
21.534
21.525
21.519
21.514
21.511
21.505
21.502
21.492
21.483
21.477
21.487
21.504
21.516
21.515
21.509
21.497
21.484
21.468
21.461
21.456
21.456
21.457
21.466
21.473
21.472
21.462
21.453
21.446
21.445
21.444
21.444
21.446
21.446
21.44
21.434
21.431
21.435
21.444
21.453
21.46
21.454
21.436
21.419
21.413
21.418
21.43
21.445
21.455
21.449
21.431
21.413
21.402
21.396
21.389
21.388
21.395
21.409
21.416
21.418
21.417
21.419
21.421
21.423
21.431
21.437
21.44
21.437
21.44
21.442
21.439
21.433
21.429
21.437
21.438
21.44
21.435
21.436
21.426
21.416
21.405
21.409
21.419
21.438
21.443
21.441
21.43
21.43
21.437
21.44
21.434
21.423
21.424
21.429
21.44
21.447
21.457
21.463
21.469
21.473
21.481
21.491
21.499
21.497
21.485
21.474
21.482
21.506
21.532
21.537
21.528
21.522
21.53
21.555
21.574
21.588
21.588
21.599
21.612
21.628
21.627
21.624
21.619
21.632
21.642
21.656
21.663
21.672
21.679
21.689
21.699
21.711
21.726
21.744
21.764
21.775
21.777
21.775
21.776
21.784
21.797
21.815
21.829
21.841
21.856
21.874
21.895
21.905
21.911
21.912
21.918
21.923
21.934
21.946
21.96
21.979
21.99
21.998
21.996
21.995
21.992
22
22.018
22.041
22.048
22.046
22.041
22.054
22.07
22.081
22.082
22.08
22.084
22.087
22.09
22.093
22.099
22.108
22.112
22.12
22.12
22.12
22.114
22.11
22.103
22.102
22.107
22.114
22.121
22.118
22.118
22.114
22.111
22.097
22.084
22.076
22.069
22.063
22.052
22.052
22.048
22.042
22.023
22.012
22.006
22.006
21.997
21.983
21.969
21.961
21.96
21.953
21.939
21.918
21.897
21.881
21.87
21.865
21.863
21.859
21.846
21.824
21.796
21.761
21.735
21.717
21.713
21.701
21.689
21.666
21.647
21.625
21.61
21.594
21.578
21.563
21.556
21.553
21.552
21.539
21.516
21.482
21.455
21.434
21.424
21.41
21.398
21.372
21.337
21.304
21.286
21.283
21.284
21.29
21.292
21.286
21.263
21.23
21.201
21.184
21.171
21.158
21.137
21.121
21.105
21.097
21.092
21.085
21.068
21.041
21.015
20.996
20.982
20.97
20.958
20.95
20.95
20.953
20.958
20.954
20.949
20.941
20.93
20.912
20.893
20.879
20.874
20.869
20.862
20.85
20.843
20.846
20.859
20.873
20.88
20.876
20.866
20.86
20.857
20.86
20.854
20.846
20.842
20.852
20.865
20.874
20.874
20.872
20.869
20.872
20.881
20.891
20.895
20.894
20.892
20.892
20.891
20.894
20.899
20.908
20.915
20.925
20.94
20.957
20.975
20.985
20.987
20.982
20.986
20.998
21.016
21.03
21.041
21.05
21.061
21.07
21.08
21.091
21.109
21.127
21.132
21.135
21.137
21.161
21.18
21.196
21.198
21.205
21.22
21.241
21.259
21.272
21.285
21.303
21.317
21.332
21.335
21.338
21.342
21.359
21.384
21.408
21.422
21.422
21.422
21.431
21.448
21.459
21.468
21.475
21.491
21.496
21.504
21.508
21.523
21.526
21.526
21.51
21.503
21.496
21.505
21.513
21.523
21.526
21.54
21.555
21.571
21.571
21.57
21.568
21.572
21.575
21.581
21.579
21.576
21.571
21.573
21.576
21.571
21.564
21.553
21.55
21.549
21.548
21.548
21.548
21.546
21.532
21.514
21.498
21.496
21.502
21.511
21.512
21.502
21.483
21.471
21.465
21.465
21.463
21.463
21.469
21.464
21.448
21.423
21.41
21.404
21.409
21.41
21.411
21.404
21.389
21.375
21.369
21.374
21.381
21.386
21.379
21.361
21.337
21.319
21.311
21.311
21.314
21.322
21.332
21.334
21.327
21.305
21.282
21.263
21.258
21.27
21.29
21.312
21.317
21.306
21.289
21.278
21.271
21.264
21.25
21.243
21.237
21.245
21.253
21.259
21.262
21.256
21.257
21.257
21.27
21.273
21.271
21.256
21.247
21.242
21.24
21.24
21.243
21.25
21.251
21.25
21.245
21.246
21.246
21.243
21.239
21.239
21.252
21.264
21.27
21.262
21.246
21.235
21.234
21.247
21.257
21.263
21.259
21.252
21.249
21.25
21.258
21.264
21.272
21.277
21.28
21.283
21.278
21.27
21.258
21.255
21.261
21.267
21.267
21.262
21.259
21.252
21.241
21.226
21.218
21.22
21.237
21.254
21.267
21.264
21.256
21.246
21.238
21.231
21.223
21.216
21.208
21.197
21.185
21.176
21.169
21.168
21.161
21.159
21.15
21.149
21.149
21.156
21.163
21.161
21.154
21.137
21.13
21.125
21.133
21.137
21.144
21.145
21.144
21.14
21.133
21.128
21.127
21.128
21.126
21.122
21.118
21.109
21.094
21.079
21.07
21.071
21.077
21.089
21.096
21.092
21.076
21.062
21.054
21.051
21.049
21.055
21.068
21.083
21.088
21.084
21.075
21.067
21.066
21.077
21.088
21.094
21.086
21.083
21.084
21.091
21.091
21.09
21.086
21.084
21.082
21.083
21.087
21.094
21.095
21.096
21.095
21.098
21.101
21.112
21.132
21.151
21.157
21.144
21.129
21.123
21.122
21.119
21.114
21.116
21.133
21.157
21.174
21.177
21.171
21.168
21.168
21.169
21.165
21.163
21.171
21.188
21.209
21.221
21.22
21.211
21.198
21.198
21.198
21.207
21.212
21.226
21.241
21.253
21.253
21.246
21.236
21.231
21.228
21.236
21.241
21.245
21.245
21.254
21.268
21.28
21.279
21.274
21.268
21.273
21.274
21.277
21.273
21.268
21.267
21.266
21.271
21.268
21.26
21.249
21.246
21.253
21.265
21.271
21.278
21.286
21.296
21.3
21.296
21.289
21.282
21.275
21.266
21.257
21.255
21.262
21.276
21.283
21.281
21.274
21.264
21.255
21.245
21.246
21.255
21.26
21.25
21.229
21.213
21.207
21.211
21.218
21.225
21.23
21.227
21.221
21.217
21.217
21.218
21.215
21.21
21.205
21.203
21.205
21.21
21.208
21.199
21.192
21.194
21.209
21.219
21.225
21.216
21.202
21.181
21.162
21.152
21.156
21.165
21.166
21.158
21.153
21.152
21.151
21.139
21.125
21.111
21.108
21.108
21.11
21.106
21.103
21.096
21.092
21.09
21.097
21.105
21.103
21.091
21.078
21.081
21.09
21.101
21.108
21.113
21.106
21.089
21.071
21.064
21.068
21.072
21.071
21.061
21.048
21.039
21.038
21.048
21.061
21.076
21.081
21.075
21.06
21.05
21.047
21.049
21.052
21.054
21.059
21.058
21.054
21.045
21.04
21.043
21.051
21.06
21.059
21.057
21.055
21.059
21.062
21.065
21.06
21.059
21.054
21.053
21.045
21.041
21.039
21.05
21.059
21.065
21.062
21.062
21.064
21.07
21.077
21.074
21.063
21.052
21.054
21.067
21.075
21.076
21.072
21.077
21.082
21.09
21.093
21.096
21.097
21.098
21.101
21.105
21.11
21.106
21.096
21.082
21.08
21.093
21.118
21.14
21.148
21.136
21.113
21.1
21.099
21.108
21.103
21.096
21.085
21.091
21.108
21.127
21.138
21.138
21.13
21.122
21.115
21.119
21.133
21.153
21.164
21.159
21.152
21.151
21.161
21.168
21.169
21.168
21.166
21.171
21.171
21.164
21.15
21.14
21.147
21.162
21.177
21.18
21.178
21.173
21.17
21.165
21.165
21.17
21.174
21.168
21.156
21.147
21.15
21.165
21.171
21.175
21.165
21.164
21.164
21.171
21.179
21.184
21.187
21.186
21.184
21.184
21.184
21.188
21.184
21.174
21.16
21.148
21.145
21.144
21.153
21.154
21.151
21.14
21.134
21.131
21.131
21.132
21.125
21.118
21.111
21.118
21.122
21.118
21.107
21.091
21.077
21.063
21.061
21.067
21.076
21.079
21.08
21.084
21.09
21.094
21.096
21.092
21.085
21.072
21.057
21.038
21.025
21.021
21.027
21.035
21.033
21.03
21.027
21.028
21.032
21.032
21.027
21.008
20.99
20.973
20.96
20.948
20.946
20.947
20.944
20.94
20.936
20.934
20.922
20.903
20.886
20.88
20.89
20.906
20.92
20.916
20.9
20.885
20.878
20.87
20.858
20.844
20.838
20.835
20.845
20.856
20.86
20.845
20.826
20.819
20.825
20.841
20.852
20.858
20.85
20.832
20.81
20.791
20.783
20.787
20.798
20.807
20.809
20.808
20.804
20.8
20.794
20.794
20.799
20.807
20.807
20.806
20.8
20.803
20.805
20.813
20.819
20.827
20.832
20.832
20.832
20.824
20.819
20.813
20.819
20.828
20.844
20.859
20.88
20.893
20.899
20.893
20.889
20.892
20.901
20.912
20.918
20.923
20.922
20.924
20.932
20.947
20.96
20.965
20.965
20.966
20.973
20.979
20.988
20.994
21.002
21.006
21.007
21.01
21.016
21.029
21.043
21.05
21.043
21.038
21.038
21.05
21.058
21.066
21.071
21.078
21.083
21.084
21.085
21.085
21.088
21.088
21.09
21.091
21.098
21.106
21.12
21.134
21.148
21.153
21.151
21.142
21.135
21.135
21.144
21.162
21.173
21.184
21.185
21.185
21.176
21.166
21.158
21.153
21.156
21.161
21.169
21.172
21.172
21.173
21.181
21.193
21.204
21.208
21.206
21.196
21.18
21.163
21.153
21.152
21.159
21.163
21.165
21.159
21.153
21.148
21.145
21.148
21.151
21.153
21.148
21.137
21.131
21.129
21.129
21.129
21.128
21.125
21.115
21.096
21.082
21.067
21.06
21.05
21.051
21.054
21.063
21.066
21.062
21.051
21.04
21.034
21.033
21.031
21.027
21.024
21.03
21.041
21.051
21.052
21.036
21.009
20.978
20.962
20.961
20.967
20.972
20.973
20.974
20.967
20.956
20.942
20.936
20.935
20.935
20.928
20.916
20.9
20.888
20.882
20.877
20.87
20.864
20.867
20.88
20.892
20.892
20.882
20.87
20.862
20.857
20.85
20.847
20.844
20.85
20.852
20.86
20.863
20.868
20.869
20.862
20.847
20.825
20.808
20.8
20.8
20.811
20.823
20.837
20.839
20.837
20.829
20.827
20.825
20.826
20.817
20.806
20.796
20.794
20.796
20.802
20.814
20.823
20.824
20.811
20.806
20.808
20.824
20.838
20.847
20.848
20.839
20.831
20.821
20.817
20.818
20.826
20.832
20.826
20.813
20.801
20.803
20.814
20.826
20.823
20.81
20.796
20.8
20.811
20.824
20.822
20.82
20.814
20.812
20.808
20.813
20.823
20.833
20.836
20.83
20.825
20.821
20.828
20.831
20.832
20.827
20.822
20.817
20.815
20.817
20.827
20.842
20.852
20.851
20.841
20.831
20.821
20.812
20.805
20.804
20.805
20.81
20.815
20.823
20.827
20.833
20.844
20.852
20.845
20.824
20.805
20.804
20.818
20.829
20.829
20.823
20.82
20.821
20.816
20.807
20.794
20.791
20.799
20.814
20.823
20.821
20.814
20.806
20.799
20.797
20.8
20.811
20.82
20.821
20.814
20.803
20.795
20.789
20.784
20.782
20.774
20.762
20.75
20.751
20.76
20.773
20.778
20.776
20.767
20.757
20.755
20.758
20.77
20.776
20.779
20.767
20.752
20.74
20.743
20.754
20.769
20.779
20.783
20.779
20.77
20.766
20.765
20.773
20.773
20.773
20.769
20.77
20.772
20.769
20.766
20.758
20.763
20.767
20.774
20.774
20.775
20.778
20.779
20.776
20.776
20.794
20.826
20.858
20.872
20.872
20.87
20.87
20.871
20.871
20.87
20.869
20.865
20.866
20.87
20.881
20.89
20.897
20.9
20.897
20.894
20.894
20.901
20.908
20.912
20.917
20.93
20.944
20.951
20.95
20.948
20.947
20.95
20.958
20.973
20.991
21.001
21.002
20.998
20.996
20.994
21
21.006
21.014
21.014
21.017
21.023
21.036
21.047
21.049
21.044
21.038
21.037
21.04
21.044
21.044
21.041
21.035
21.034
21.033
21.031
21.024
21.022
21.024
21.025
21.023
21.021
21.025
21.03
21.034
21.032
21.029
21.025
21.024
21.025
21.028
21.025
21.016
21.001
20.992
20.989
20.987
20.981
20.975
20.972
20.974
20.971
20.962
20.95
20.949
20.953
20.963
20.964
20.962
20.948
20.932
20.91
20.897
20.888
20.884
20.877
20.869
20.858
20.843
20.832
20.824
20.82
20.816
20.811
20.804
20.794
20.789
20.785
20.779
20.767
20.759
20.758
20.759
20.751
20.735
20.721
20.71
20.702
20.694
20.686
20.681
20.675
20.671
20.668
20.669
20.669
20.665
20.663
20.664
20.665
20.659
20.65
20.638
20.63
20.62
20.614
20.607
20.607
20.606
20.603
20.594
20.582
20.572
20.563
20.56
20.563
20.575
20.583
20.592
20.595
20.598
20.594
20.592
20.591
20.595
20.593
20.586
20.579
20.582
20.593
20.6
20.594
20.58
20.564
20.551
20.542
20.543
20.555
20.573
20.588
20.601
20.614
20.626
20.633
20.633
20.631
20.635
20.644
20.652
20.658
20.66
20.663
20.666
20.666
20.666
20.67
20.682
20.694
20.702
20.706
20.712
20.719
20.729
20.737
20.741
20.745
20.748
20.75
20.75
20.747
20.748
20.748
20.752
20.752
20.753
20.755
20.758
20.763
20.766
20.767
20.763
20.759
20.76
20.761
20.77
20.78
20.795
20.807
20.811
20.808
20.799
20.795
20.793
20.792
20.786
20.777
20.775
20.777
20.779
20.775
20.771
20.774
20.775
20.775
20.766
20.755
20.743
20.736
20.738
20.748
20.758
20.759
20.746
20.725
20.704
20.692
20.687
20.691
20.693
20.696
20.697
20.699
20.7
20.698
20.696
20.693
20.686
20.673
20.662
20.656
20.648
20.639
20.627
20.624
20.627
20.631
20.63
20.624
20.614
20.602
20.594
20.591
20.593
20.593
20.59
20.587
20.586
20.585
20.587
20.591
20.598
20.599
20.59
20.579
20.575
20.58
20.589
20.59
20.584
20.573
20.567
20.562
20.564
20.565
20.566
20.566
20.569
20.577
20.587
20.597
20.607
20.616
20.626
20.631
20.635
20.637
20.638
20.641
20.646
20.656
20.666
20.672
20.671
20.672
20.673
20.677
20.683
20.698
20.715
20.727
20.729
20.728
20.722
20.719
20.716
20.723
20.731
20.742
20.746
20.75
20.752
20.758
20.766
20.775
20.784
20.79
20.793
20.797
20.801
20.802
20.8
20.8
20.808
20.818
20.827
20.831
20.832
20.83
20.826
20.824
20.83
20.844
20.859
20.866
20.86
20.852
20.845
20.85
20.853
20.852
20.846
20.843
20.846
20.848
20.845
20.835
20.825
20.822
20.822
20.823
20.818
20.809
20.798
20.788
20.782
20.774
20.764
20.752
20.742
20.734
20.725
20.71
20.695
20.682
20.674
20.667
20.656
20.641
20.627
20.621
20.623
20.623
20.614
20.598
20.582
20.568
20.559
20.551
20.541
20.527
20.511
20.494
20.475
20.458
20.443
20.432
20.425
20.417
20.409
20.399
20.39
20.382
20.369
20.353
20.335
20.323
20.313
20.305
20.292
20.28
20.269
20.265
20.26
20.252
20.241
20.232
20.226
20.22
20.212
20.206
20.2
20.195
20.192
20.194
20.202
20.206
20.205
20.198
20.195
20.196
20.2
20.202
20.204
20.201
20.197
20.188
20.183
20.183
20.188
20.196
20.197
20.195
20.191
20.196
20.206
20.217
20.227
20.236
20.249
20.262
20.276
20.284
20.288
20.29
20.293
20.3
20.304
20.311
20.318
20.33
20.343
20.355
20.366
20.376
20.388
20.398
20.407
20.414
20.426
20.441
20.455
20.464
20.473
20.483
20.494
20.504
20.515
20.528
20.54
20.551
20.558
20.563
20.574
20.59
20.605
20.611
20.613
20.612
20.624
20.642
20.668
20.685
20.697
20.705
20.72
20.732
20.736
20.734
20.737
20.749
20.763
20.775
20.78
20.785
20.793
20.806
20.815
20.82
20.819
20.817
20.813
20.811
20.81
20.81
20.81
20.81
20.813
20.82
20.828
20.83
20.824
20.816
20.816
20.826
20.84
20.849
20.853
20.854
20.851
20.843
20.828
20.814
20.807
20.807
20.813
20.817
20.832
20.841
20.846
20.833
20.82
20.804
20.798
20.796
20.802
20.805
20.804
20.795
20.784
20.772
20.764
20.766
20.776
20.792
20.799
20.793
20.777
20.762
20.758
20.761
20.771
20.774
20.772
20.763
20.756
20.748
20.738
20.73
20.727
20.732
20.737
20.74
20.733
20.724
20.715
20.716
20.721
20.731
20.736
20.735
20.726
20.716
20.715
20.722
20.728
20.726
20.718
20.712
20.711
20.716
20.719
20.721
20.724
20.731
20.736
20.737
20.734
20.736
20.736
20.738
20.738
20.739
20.738
20.743
20.756
20.776
20.791
20.797
20.796
20.801
20.813
20.827
20.83
20.822
20.809
20.799
20.8
20.806
20.821
20.835
20.847
20.848
20.842
20.837
20.837
20.844
20.854
20.865
20.872
20.874
20.875
20.882
20.893
20.901
20.905
20.905
20.906
20.903
20.896
20.891
20.891
20.901
20.915
20.927
20.93
20.922
20.909
20.899
20.898
20.902
20.91
20.915
20.921
20.925
20.931
20.931
20.93
20.922
20.911
20.901
20.895
20.89
20.89
20.89
20.891
20.884
20.875
20.864
20.857
20.847
20.836
20.828
20.828
20.831
20.828
20.82
20.812
20.808
20.806
20.8
20.789
20.773
20.754
20.742
20.735
20.73
20.72
20.706
20.693
20.683
20.678
20.671
20.662
20.644
20.617
20.588
20.571
20.564
20.563
20.557
20.549
20.537
20.527
20.514
20.499
20.479
20.454
20.433
20.418
20.408
20.399
20.39
20.382
20.378
20.374
20.362
20.34
20.307
20.273
20.25
20.237
20.228
20.213
20.192
20.171
20.161
20.155
20.151
20.141
20.127
20.108
20.091
20.076
20.062
20.045
20.03
20.014
20.001
19.988
19.977
19.968
19.958
19.949
19.936
19.924
19.911
19.901
19.889
19.877
19.868
19.863
19.867
19.876
19.882
19.882
19.873
19.866
19.858
19.851
19.837
19.825
19.814
19.809
19.804
19.804
19.809
19.821
19.839
19.858
19.869
19.869
19.864
19.858
19.855
19.852
19.858
19.865
19.882
19.899
19.914
19.921
19.925
19.927
19.93
19.935
19.937
19.936
19.933
19.934
19.944
19.962
19.987
20.014
20.04
20.062
20.075
20.084
20.089
20.104
20.121
20.139
20.151
20.164
20.181
20.202
20.227
20.25
20.272
20.29
20.307
20.321
20.333
20.35
20.371
20.4
20.427
20.454
20.475
20.494
20.511
20.529
20.545
20.561
20.578
20.602
20.625
20.65
20.67
20.691
20.7
20.704
20.706
20.723
20.75
20.781
20.807
20.83
20.852
20.871
20.89
20.907
20.919
20.927
20.936
20.95
20.965
20.974
20.98
20.989
21.005
21.025
21.045
21.058
21.065
21.064
21.065
21.07
21.08
21.092
21.105
21.124
21.142
21.155
21.157
21.153
21.146
21.138
21.13
21.13
21.137
21.148
21.15
21.147
21.142
21.139
21.138
21.138
21.136
21.134
21.127
21.118
21.104
21.099
21.098
21.1
21.097
21.09
21.076
21.061
21.046
21.041
21.046
21.054
21.053
21.035
21.008
20.983
20.968
20.96
20.958
20.953
20.943
20.923
20.906
20.893
20.88
20.863
20.839
20.821
20.806
20.804
20.799
20.796
20.781
20.766
20.747
20.731
20.713
20.697
20.676
20.655
20.633
20.619
20.605
20.596
20.586
20.577
20.564
20.55
20.537
20.526
20.517
20.503
20.484
20.461
20.44
20.429
20.431
20.433
20.428
20.412
20.395
20.379
20.376
20.381
20.39
20.388
20.38
20.363
20.348
20.33
20.318
20.309
20.309
20.312
20.32
20.325
20.323
20.317
20.309
20.299
20.289
20.283
20.286
20.288
20.292
20.292
20.297
20.303
20.311
20.315
20.315
20.312
20.311
20.318
20.331
20.345
20.356
20.362
20.369
20.376
20.383
20.387
20.389
20.396
20.403
20.416
20.426
20.441
20.446
20.451
20.45
20.453
20.457
20.466
20.477
20.485
20.492
20.497
20.507
20.522
20.536
20.544
20.544
20.552
20.566
20.581
20.588
20.59
20.594
20.601
20.613
20.624
20.635
20.644
20.649
20.656
20.663
20.669
20.671
20.671
20.672
20.675
20.678
20.685
20.697
20.712
20.719
20.719
20.715
20.719
20.73
20.739
20.741
20.741
20.749
20.757
20.758
20.753
20.75
20.751
20.749
20.742
20.734
20.734
20.739
20.742
20.735
20.724
20.718
20.723
20.737
20.749
20.754
20.754
20.749
20.745
20.74
20.735
20.73
20.725
20.72
20.714
20.715
20.721
20.73
20.733
20.73
20.727
20.721
20.716
20.706
20.7
20.695
20.694
20.687
20.679
20.673
20.671
20.67
20.663
20.654
20.647
20.65
20.656
20.662
20.663
20.66
20.659
20.662
20.665
20.661
20.651
20.644
20.644
20.649
20.654
20.658
20.658
20.662
20.668
20.672
20.672
20.669
20.671
20.676
20.683
20.692
20.701
20.71
20.716
20.716
20.708
20.699
20.694
20.696
20.698
20.697
20.689
20.683
20.677
20.678
20.675
20.67
20.667
20.672
20.688
20.703
20.709
20.707
20.704
20.703
20.704
20.705
20.71
20.714
20.712
20.709
20.71
20.717
20.725
20.731
20.733
20.733
20.73
20.728
20.721
20.711
20.7
20.694
20.701
20.717
20.732
20.734
20.727
20.718
20.712
20.707
20.701
20.702
20.702
20.702
20.696
20.697
20.703
20.708
20.707
20.701
20.694
20.685
20.675
20.665
20.661
20.662
20.663
20.664
20.664
20.664
20.663
20.661
20.656
20.647
20.638
20.629
20.629
20.626
20.619
20.605
20.588
20.577
20.572
20.578
20.581
20.577
20.566
20.55
20.535
20.523
20.518
20.514
20.506
20.496
20.486
20.47
20.454
20.441
20.436
20.432
20.426
20.419
20.418
20.414
20.405
20.388
20.377
20.378
20.385
20.39
20.384
20.372
20.36
20.35
20.34
20.327
20.319
20.32
20.323
20.324
20.311
20.298
20.281
20.272
20.265
20.263
20.26
20.252
20.243
20.233
20.227
20.219
20.217
20.216
20.224
20.229
20.228
20.218
20.2
20.184
20.176
20.179
20.183
20.183
20.182
20.184
20.186
20.185
20.182
20.182
20.181
20.182
20.185
20.192
20.196
20.195
20.192
20.19
20.192
20.2
20.211
20.22
20.219
20.216
20.215
20.219
20.225
20.233
20.242
20.252
20.262
20.277
20.29
20.301
20.305
20.308
20.316
20.328
20.342
20.351
20.359
20.366
20.378
20.388
20.398
20.407
20.419
20.431
20.445
20.461
20.48
20.498
20.509
20.516
20.52
20.525
20.528
20.53
20.534
20.546
20.569
20.598
20.628
20.65
20.666
20.676
20.684
20.688
20.692
20.702
20.717
20.736
20.751
20.762
20.772
20.783
20.798
20.811
20.821
20.824
20.829
20.83
20.833
20.833
20.838
20.847
20.858
20.866
20.872
20.877
20.887
20.895
20.896
20.887
20.883
20.889
20.909
20.923
20.93
20.928
20.928
20.927
20.927
20.926
20.92
20.906
20.892
20.886
20.892
20.896
20.892
20.882
20.869
20.861
20.852
20.84
20.821
20.798
20.781
20.773
20.773
20.774
20.773
20.762
20.751
20.739
20.733
20.722
20.715
20.705
20.698
20.69
20.679
20.66
20.633
20.603
20.577
20.558
20.546
20.539
20.538
20.538
20.533
20.521
20.498
20.474
20.448
20.431
20.418
20.408
20.393
20.379
20.364
20.354
20.347
20.345
20.343
20.337
20.328
20.317
20.308
20.303
20.305
20.302
20.289
20.27
20.259
20.255
20.254
20.247
20.244
20.245
20.249
20.251
20.247
20.244
20.239
20.239
20.24
20.245
20.253
20.261
20.264
20.265
20.267
20.272
20.272
20.267
20.255
20.248
20.252
20.266
20.285
20.304
20.322
20.335
20.345
20.351
20.358
20.363
20.372
20.382
20.398
20.409
20.421
20.43
20.446
20.46
20.471
20.479
20.482
20.488
20.495
20.506
20.519
20.533
20.543
20.55
20.56
20.578
20.597
20.609
20.614
20.622
20.638
20.654
20.66
20.658
20.656
20.662
20.675
20.69
20.704
20.717
20.733
20.746
20.755
20.76
20.765
20.774
20.781
20.786
20.786
20.788
20.795
20.806
20.812
20.81
20.804
20.797
20.792
20.786
20.78
20.775
20.768
20.765
20.767
20.776
20.784
20.788
20.79
20.788
20.78
20.769
20.759
20.752
20.748
20.746
20.745
20.743
20.733
20.72
20.705
20.699
20.697
20.701
20.694
20.687
20.675
20.67
20.662
20.654
20.64
20.624
20.606
20.595
20.592
20.595
20.595
20.593
20.586
20.579
20.571
20.562
20.553
20.547
20.544
20.545
20.54
20.528
20.508
20.491
20.481
20.478
20.477
20.477
20.476
20.474
20.47
20.467
20.466
20.459
20.452
20.448
20.448
20.447
20.443
20.437
20.437
20.439
20.446
20.45
20.446
20.44
20.426
20.417
20.408
20.406
20.41
20.422
20.437
20.449
20.447
20.441
20.433
20.436
20.444
20.456
20.468
20.477
20.487
20.492
20.495
20.492
20.494
20.498
20.503
20.502
20.5
20.505
20.517
20.527
20.532
20.538
20.546
20.558
20.566
20.574
20.575
20.577
20.585
20.604
20.628
20.648
20.665
20.67
20.668
20.661
20.662
20.664
20.662
20.657
20.653
20.654
20.66
20.674
20.696
20.718
20.737
20.748
20.751
20.744
20.735
20.735
20.742
20.756
20.764
20.764
20.757
20.75
20.749
20.749
20.748
20.744
20.74
20.739
20.744
20.747
20.746
20.744
20.749
20.756
20.764
20.762
20.758
20.748
20.742
20.737
20.736
20.735
20.739
20.743
20.746
20.742
20.733
20.724
20.711
20.699
20.687
20.681
20.675
20.671
20.667
20.66
20.647
20.627
20.609
20.599
20.6
20.603
20.598
20.588
20.579
20.582
20.59
20.597
20.592
20.576
20.557
20.543
20.534
20.529
20.525
20.525
20.521
20.512
20.492
20.471
20.455
20.45
20.446
20.44
20.429
20.421
20.414
20.405
20.393
20.382
20.376
20.376
20.378
20.374
20.362
20.345
20.334
20.329
20.33
20.327
20.327
20.331
20.34
20.341
20.341
20.336
20.334
20.329
20.327
20.327
20.325
20.321
20.318
20.319
20.318
20.318
20.312
20.314
20.315
20.322
20.328
20.334
20.342
20.348
20.354
20.355
20.357
20.363
20.374
20.383
20.391
20.395
20.404
20.411
20.421
20.432
20.442
20.443
20.44
20.438
20.44
20.448
20.463
20.478
20.489
20.489
20.49
20.491
20.504
20.516
20.531
20.543
20.555
20.565
20.573
20.578
20.574
20.568
20.567
20.58
20.6
20.616
20.624
20.626
20.632
20.639
20.648
20.651
20.656
20.662
20.675
20.688
20.702
20.711
20.716
20.719
20.714
20.706
20.7
20.706
20.717
20.726
20.725
20.722
20.72
20.727
20.739
20.749
20.748
20.741
20.737
20.744
20.751
20.756
20.758
20.758
20.759
20.755
20.758
20.757
20.76
20.755
20.75
20.738
20.727
20.713
20.703
20.692
20.683
20.678
20.685
20.696
20.705
20.707
20.705
20.703
20.696
20.686
20.673
20.66
20.647
20.637
20.628
20.622
20.613
20.602
20.589
20.577
20.569
20.563
20.558
20.553
20.548
20.542
20.533
20.519
20.501
20.484
20.469
20.462
20.462
20.462
20.458
20.448
20.444
20.441
20.442
20.436
20.425
20.416
20.407
20.406
20.398
20.392
20.377
20.362
20.348
20.342
20.343
20.348
20.353
20.357
20.354
20.348
20.344
20.349
20.361
20.368
20.37
20.364
20.358
20.351
20.354
20.36
20.367
20.371
20.37
20.365
20.355
20.345
20.342
20.349
20.362
20.375
20.381
20.384
20.387
20.389
20.384
20.384
20.387
20.402
20.415
20.432
20.442
20.445
20.443
20.442
20.447
20.454
20.456
20.453
20.451
20.458
20.476
20.496
20.506
20.5
20.492
20.493
20.508
20.523
20.532
20.537
20.535
20.532
20.528
20.537
20.554
20.564
20.568
20.571
20.585
20.598
20.605
20.606
20.604
20.604
20.607
20.619
20.633
20.64
20.643
20.646
20.648
20.647
20.647
20.647
20.649
20.645
20.647
20.649
20.657
20.66
20.663
20.665
20.673
20.68
20.686
20.687
20.68
20.668
20.655
20.648
20.65
20.653
20.657
20.659
20.666
20.664
20.654
20.641
20.636
20.639
20.637
20.634
20.626
20.622
20.609
20.6
20.593
20.597
20.6
20.601
20.599
20.597
20.594
20.585
20.567
20.555
20.552
20.562
20.567
20.567
20.558
20.549
20.539
20.535
20.534
20.535
20.53
20.519
20.507
20.5
20.502
20.505
20.504
20.493
20.482
20.477
20.475
20.48
20.485
20.493
20.499
20.506
20.509
20.506
20.495
20.487
20.483
20.487
20.489
20.492
20.491
20.491
20.493
20.496
20.498
20.497
20.496
20.496
20.495
20.494
20.493
20.493
20.497
20.506
20.519
20.53
20.537
20.539
20.541
20.545
20.545
20.543
20.542
20.544
20.549
20.558
20.571
20.586
20.596
20.6
20.606
20.612
20.623
20.632
20.644
20.652
20.658
20.667
20.675
20.678
20.674
20.667
20.671
20.685
20.704
20.71
20.704
20.695
20.693
20.698
20.705
20.712
20.716
20.721
20.726
20.732
20.737
20.745
20.755
20.771
20.784
20.791
20.789
20.786
20.787
20.793
20.798
20.801
20.794
20.783
20.773
20.773
20.78
20.786
20.788
20.784
20.778
20.77
20.767
20.769
20.777
20.777
20.77
20.758
20.752
20.753
20.761
20.774
20.784
20.786
20.776
20.762
20.747
20.732
20.713
20.696
20.686
20.684
20.684
20.685
20.686
20.688
20.687
20.683
20.676
20.67
20.663
20.656
20.644
20.634
20.628
20.627
20.63
20.625
20.61
20.591
20.578
20.574
20.573
20.569
20.56
20.551
20.549
20.551
20.558
20.56
20.565
20.565
20.563
20.557
20.554
20.552
20.554
20.553
20.547
20.532
20.516
20.504
20.503
20.502
20.508
20.513
20.52
20.522
20.522
20.518
20.512
20.505
20.504
20.504
20.511
20.52
20.536
20.549
20.556
20.555
20.549
20.542
20.533
20.531
20.535
20.542
20.546
20.549
20.557
20.565
20.57
20.571
20.576
20.584
20.592
20.598
20.602
20.606
20.602
20.602
20.603
20.617
20.633
20.649
20.656
20.662
20.668
20.672
20.676
20.683
20.698
20.713
20.727
20.733
20.74
20.744
20.751
20.755
20.764
20.767
20.772
20.779
20.795
20.807
20.816
20.82
20.827
20.835
20.846
20.859
20.874
20.881
20.881
20.882
20.887
20.897
20.907
20.918
20.921
20.92
20.919
20.923
20.933
20.941
20.948
20.948
20.948
20.946
20.947
20.947
20.946
20.943
20.939
20.94
20.945
20.958
20.966
20.97
20.968
20.967
20.968
20.964
20.96
20.954
20.953
20.953
20.956
20.96
20.962
20.964
20.962
20.957
20.953
20.951
20.956
20.962
20.964
20.959
20.947
20.937
20.929
20.923
20.918
20.913
20.913
20.913
20.915
20.914
20.912
20.904
20.894
20.886
20.882
20.881
20.883
20.882
20.879
20.873
20.864
20.855
20.844
20.842
20.842
20.843
20.835
20.823
20.813
20.807
20.81
20.818
20.827
20.835
20.836
20.835
20.828
20.822
20.815
20.81
20.808
20.815
20.826
20.837
20.836
20.83
20.818
20.816
20.815
20.821
20.822
20.822
20.817
20.813
20.815
20.82
20.823
20.822
20.818
20.816
20.812
20.815
20.823
20.837
20.85
20.857
20.86
20.852
20.844
20.839
20.84
20.847
20.853
20.861
20.865
20.87
20.872
20.873
20.872
20.87
20.872
20.876
20.878
20.873
20.865
20.862
20.865
20.875
20.887
20.897
20.901
20.901
20.901
20.908
20.915
20.92
20.919
20.914
20.909
20.906
20.914
20.925
20.935
20.93
20.913
20.893
20.883
20.888
20.899
20.911
20.922
20.933
20.937
20.935
20.932
20.936
20.944
20.949
20.948
20.941
20.935
20.932
20.935
20.933
20.93
20.926
20.92
20.909
20.901
20.9
20.907
20.91
20.903
20.892
20.884
20.884
20.888
20.89
20.888
20.884
20.877
20.87
20.863
20.862
20.862
20.863
20.861
20.859
20.85
20.84
20.829
20.823
20.817
20.809
20.804
20.802
20.801
20.794
20.787
20.778
20.765
20.745
20.73
20.729
20.737
20.746
20.745
20.744
20.744
20.751
20.756
20.757
20.754
20.743
20.725
20.708
20.701
20.702
20.703
20.703
20.7
20.695
20.689
20.682
20.679
20.678
20.68
20.684
20.684
20.683
20.681
20.68
20.675
20.67
20.67
20.676
20.685
20.694
20.699
20.7
20.697
20.694
20.692
20.687
20.683
20.676
20.675
20.671
20.672
20.669
20.672
20.673
20.68
20.685
20.69
20.688
20.686
20.687
20.694
20.702
20.712
20.722
20.729
20.73
20.725
20.719
20.711
20.71
20.719
20.736
20.753
20.759
20.755
20.743
20.732
20.728
20.728
20.733
20.739
20.743
20.744
20.743
20.746
20.748
20.747
20.745
20.742
20.741
20.739
20.738
20.74
20.743
20.741
20.735
20.73
20.734
20.745
20.761
20.776
20.785
20.786
20.782
20.774
20.766
20.761
20.763
20.766
20.767
20.762
20.764
20.776
20.796
20.81
20.813
20.808
20.804
20.806
20.811
20.816
20.816
20.81
20.8
20.796
20.799
20.802
20.799
20.79
20.78
20.769
20.765
20.764
20.772
20.779
20.785
20.782
20.773
20.756
20.74
20.728
20.724
20.729
20.74
20.749
20.75
20.746
20.738
20.727
20.717
20.709
20.707
20.707
20.71
20.707
20.7
20.684
20.671
20.666
20.674
20.69
20.703
20.709
20.708
20.706
20.704
20.7
20.693
20.687
20.686
20.684
20.682
20.681
20.685
20.685
20.683
20.678
20.68
20.687
20.692
20.693
20.691
20.695
20.706
20.714
20.707
20.687
20.669
20.66
20.661
20.664
20.664
20.661
20.66
20.658
20.659
20.659
20.664
20.672
20.684
20.693
20.697
20.695
20.69
20.69
20.694
20.701
20.704
20.705
20.702
20.702
20.704
20.709
20.715
20.72
20.728
20.738
20.746
20.747
20.742
20.741
20.744
20.75
20.751
20.747
20.741
20.739
20.745
20.764
20.788
20.805
20.808
20.803
20.798
20.803
20.812
20.823
20.83
20.836
20.846
20.856
20.863
20.863
20.862
20.866
20.878
20.892
20.899
20.901
20.899
20.9
20.907
20.914
20.92
20.92
20.924
20.927
20.933
20.935
20.943
20.954
20.969
20.979
20.989
20.999
21.009
21.016
21.015
21.004
20.992
20.984
20.983
20.989
20.999
21.012
21.026
21.037
21.045
21.048
21.05
21.052
21.052
21.051
21.05
21.054
21.064
21.072
21.076
21.076
21.079
21.081
21.085
21.086
21.085
21.083
21.083
21.084
21.086
21.087
21.087
21.086
21.089
21.092
21.093
21.09
21.088
21.082
21.078
21.075
21.081
21.087
21.085
21.073
21.06
21.052
21.049
21.05
21.052
21.057
21.06
21.062
21.059
21.048
21.037
21.028
21.027
21.032
21.042
21.048
21.048
21.048
21.05
21.057
21.06
21.058
21.051
21.039
21.03
21.028
21.031
21.035
21.038
21.041
21.041
21.032
21.02
21.008
21.003
21.004
21.01
21.013
21.013
21.011
21.01
21.011
21.013
21.014
21.014
21.013
21.013
21.012
21.01
21.006
21.005
21.007
21.014
21.019
21.023
21.025
21.026
21.029
21.028
21.024
21.01
20.995
20.985
20.988
20.996
21.006
21.012
21.018
21.019
21.018
21.015
21.014
21.018
21.02
21.015
21.002
20.991
20.987
20.988
20.988
20.988
20.99
20.992
20.995
20.999
21.007
21.013
21.024
21.03
21.034
21.025
21.015
21.007
21.012
21.018
21.023
21.02
21.014
21.011
21.012
21.016
21.021
21.023
21.025
21.026
21.03
21.031
21.032
21.029
21.022
21.01
20.999
20.989
20.986
20.987
20.99
20.988
20.984
20.982
20.983
20.981
20.975
20.964
20.959
20.959
20.97
20.979
20.981
20.969
20.956
20.95
20.953
20.952
20.945
20.935
20.929
20.93
20.931
20.934
20.933
20.932
20.923
20.918
20.916
20.921
20.925
20.921
20.913
20.905
20.903
20.905
20.908
20.906
20.909
20.913
20.92
20.915
20.905
20.892
20.882
20.874
20.872
20.871
20.879
20.883
20.889
20.886
20.877
20.866
20.861
20.868
20.879
20.885
20.881
20.87
20.856
20.848
20.845
20.852
20.86
20.867
20.864
20.858
20.849
20.845
20.852
20.862
20.872
20.872
20.872
20.871
20.869
20.866
20.869
20.876
20.881
20.878
20.873
20.874
20.879
20.88
20.878
20.875
20.88
20.883
20.886
20.886
20.888
20.888
20.88
20.875
20.877
20.89
20.906
20.918
20.93
20.935
20.934
20.923
20.912
20.905
20.91
20.919
20.927
20.925
20.921
20.921
20.928
20.936
20.936
20.932
20.922
20.914
20.911
20.915
20.925
20.934
20.939
20.94
20.943
20.947
20.948
20.946
20.94
20.938
20.936
20.94
20.941
20.94
20.939
20.94
20.942
20.939
20.936
20.94
20.946
20.949
20.942
20.935
20.936
20.943
20.948
20.94
20.927
20.915
20.91
20.913
20.922
20.93
20.932
20.928
20.924
20.919
20.913
20.905
20.902
20.904
20.91
20.917
20.916
20.908
20.893
20.882
20.875
20.873
20.868
20.864
20.859
20.857
20.856
20.857
20.859
20.861
20.865
20.869
20.873
20.874
20.872
20.869
20.862
20.853
20.847
20.854
20.866
20.878
20.882
20.879
20.868
20.853
20.836
20.821
20.808
20.804
20.81
20.823
20.832
20.834
20.83
20.822
20.817
20.814
20.816
20.814
20.816
20.815
20.816
20.812
20.809
20.806
20.803
20.799
20.791
20.786
20.784
20.787
20.789
20.789
20.789
20.792
20.794
20.801
20.807
20.805
20.795
20.783
20.781
20.783
20.79
20.8
20.813
20.829
20.839
20.842
20.834
20.825
20.821
20.822
20.822
20.821
20.819
20.817
20.821
20.829
20.842
20.845
20.846
20.842
20.846
20.844
20.844
20.841
20.844
20.844
20.846
20.846
20.849
20.849
20.847
20.845
20.845
20.846
20.844
20.841
20.834
20.827
20.824
20.83
20.84
20.847
20.847
20.847
20.847
20.852
20.86
20.866
20.869
20.865
20.863
20.86
20.866
20.871
20.879
20.88
20.877
20.873
20.874
20.881
20.891
20.902
20.909
20.902
20.891
20.883
20.889
20.896
20.9
20.893
20.882
20.871
20.874
20.886
20.898
20.899
20.895
20.892
20.895
20.897
20.9
20.9
20.898
20.898
20.897
20.899
20.894
20.886
20.877
20.876
20.881
20.885
20.887
20.886
20.889
20.895
20.905
20.914
20.919
20.918
20.917
20.92
20.926
20.926
20.917
20.908
20.901
20.9
20.9
20.902
20.903
20.904
20.903
20.901
20.902
20.906
20.91
20.912
20.912
20.91
20.908
20.905
20.905
20.902
20.902
20.902
20.905
20.906
20.904
20.901
20.898
20.894
20.89
20.888
20.894
20.906
20.92
20.924
20.918
20.906
20.901
20.904
20.91
20.911
20.907
20.906
20.91
20.918
20.92
20.916
20.907
20.902
20.901
20.905
20.91
20.91
20.902
20.894
20.892
20.896
20.901
20.9
20.899
20.894
20.89
20.881
20.877
20.875
20.878
20.883
20.892
20.901
20.905
20.903
20.896
20.886
20.879
20.876
20.879
20.884
20.894
20.903
20.913
20.921
20.931
20.929
20.919
20.901
20.891
20.886
20.882
20.874
20.866
20.861
20.865
20.873
20.881
20.885
20.886
20.885
20.883
20.88
20.879
20.879
20.879
20.877
20.872
20.866
20.864
20.866
20.868
20.866
20.866
20.868
20.869
20.865
20.864
20.865
20.869
20.866
20.857
20.848
20.845
20.846
20.841
20.837
20.833
20.837
20.838
20.842
20.839
20.841
20.842
20.85
20.858
20.865
20.869
20.869
20.866
20.859
20.852
20.845
20.842
20.841
20.84
20.835
20.826
20.816
20.806
20.797
20.79
20.786
20.792
20.801
20.808
20.807
20.801
20.801
20.805
20.811
20.814
20.813
20.807
20.801
20.798
20.8
20.804
20.808
20.813
20.812
20.81
20.805
20.803
20.799
20.798
20.797
20.803
20.812
20.819
20.817
20.807
20.8
20.806
20.817
20.822
20.82
20.821
20.828
20.837
20.838
20.835
20.827
20.821
20.818
20.82
20.824
20.823
20.816
20.807
20.801
20.797
20.797
20.804
20.822
20.841
20.854
20.857
20.858
20.861
20.866
20.866
20.863
20.859
20.859
20.86
20.862
20.861
20.858
20.854
20.856
20.863
20.871
20.876
20.874
20.869
20.859
20.849
20.839
20.835
20.838
20.847
20.863
20.872
20.873
20.861
20.849
20.844
20.844
20.848
20.85
20.853
20.859
20.866
20.874
20.873
20.871
20.866
20.868
20.873
20.878
20.879
20.874
20.867
20.864
20.868
20.876
20.884
20.889
20.893
20.893
20.891
20.884
20.878
20.874
20.875
20.88
20.886
20.887
20.887
20.885
20.885
20.88
20.871
20.857
20.843
20.838
20.841
20.85
20.853
20.849
20.836
20.826
20.82
20.822
20.823
20.825
20.823
20.819
20.817
20.818
20.824
20.826
20.828
20.828
20.826
20.823
20.818
20.816
20.812
20.809
20.807
20.803
20.796
20.791
20.789
20.786
20.783
20.778
20.776
20.773
20.771
20.768
20.766
20.765
20.766
20.768
20.764
20.755
20.743
20.735
20.731
20.728
20.728
20.729
20.735
20.741
20.744
20.749
20.751
20.755
20.75
20.74
20.723
20.71
20.7
20.697
20.697
20.696
20.692
20.687
20.686
20.692
20.696
20.693
20.684
20.673
20.665
20.661
20.665
20.675
20.686
20.693
20.697
20.697
20.697
20.694
20.69
20.686
20.684
20.682
20.68
20.672
20.665
20.662
20.668
20.672
20.67
20.666
20.665
20.668
20.671
20.676
20.685
20.693
20.697
20.696
20.691
20.691
20.69
20.687
20.681
20.674
20.669
20.661
20.659
20.661
20.672
20.683
20.694
20.7
20.709
20.708
20.702
20.69
20.686
20.682
20.677
20.671
20.67
20.672
20.679
20.689
20.7
20.709
20.712
20.709
20.702
20.698
20.699
20.704
20.709
20.715
20.721
20.726
20.729
20.727
20.731
20.729
20.724
20.713
20.705
20.702
20.696
20.691
20.687
20.693
20.693
20.696
20.695
20.701
20.702
20.702
20.702
20.711
20.727
20.741
20.743
20.732
20.716
20.708
20.704
20.704
20.7
20.701
20.701
20.706
20.712
20.721
20.726
20.721
20.71
20.689
20.671
20.652
20.649
20.654
20.667
20.673
20.684
20.692
20.702
20.71
20.72
20.73
20.733
20.73
20.722
20.716
20.709
20.704
20.706
20.71
20.71
20.703
20.694
20.686
20.684
20.682
20.689
20.69
20.698
20.699
20.705
20.705
20.706
20.704
20.703
20.699
20.694
20.689
20.689
20.689
20.695
20.706
20.721
20.728
20.722
20.713
20.705
20.712
20.725
20.74
20.742
20.732
20.714
20.701
20.702
20.715
20.726
20.73
20.725
20.724
20.726
20.735
20.745
20.755
20.759
20.754
20.748
20.747
20.752
20.756
20.758
20.758
20.757
20.754
20.749
20.744
20.743
20.744
20.749
20.752
20.754
20.756
20.762
20.768
20.773
20.77
20.765
20.76
20.756
20.75
20.74
20.729
20.725
20.726
20.733
20.74
20.744
20.743
20.739
20.739
20.748
20.761
20.769
20.77
20.765
20.758
20.749
20.738
20.73
20.728
20.735
20.745
20.755
20.767
20.775
20.781
20.777
20.77
20.758
20.747
20.734
20.726
20.723
20.724
20.724
20.723
20.722
20.72
20.718
20.716
20.719
20.721
20.715
20.703
20.692
20.69
20.695
20.696
20.694
20.689
20.69
20.691
20.696
20.701
20.71
20.717
20.716
20.707
20.696
20.689
20.686
20.685
20.688
20.691
20.697
20.702
20.707
20.705
20.703
20.7
20.696
20.686
20.674
20.657
20.645
20.634
20.631
20.632
20.637
20.644
20.648
20.651
20.652
20.657
20.664
20.668
20.669
20.668
20.671
20.674
20.676
20.675
20.674
20.677
20.678
20.675
20.669
20.665
20.668
20.673
20.679
20.687
20.697
20.7
20.695
20.684
20.675
20.67
20.67
20.676
20.688
20.699
20.706
20.705
20.701
20.691
20.681
20.676
20.678
20.685
20.691
20.694
20.695
20.694
20.698
20.701
20.706
20.709
20.71
20.707
20.703
20.701
20.701
20.705
20.712
20.721
20.728
20.731
20.726
20.719
20.718
20.726
20.737
20.746
20.744
20.736
20.725
20.719
20.718
20.723
20.73
20.733
20.731
20.728
20.727
20.734
20.739
20.745
20.747
20.749
20.745
20.736
20.728
20.726
20.731
20.735
20.737
20.739
20.743
20.75
20.754
20.757
20.755
20.751
20.745
20.736
20.727
20.722
20.724
20.731
20.739
20.747
20.752
20.751
20.742
20.728
20.72
20.721
20.731
20.739
20.739
20.731
20.727
20.73
20.74
20.75
20.756
20.76
20.759
20.755
20.749
20.744
20.737
20.729
20.721
20.719
20.723
20.726
20.729
20.731
20.737
20.738
20.737
20.732
20.726
20.715
20.701
20.689
20.683
20.689
20.698
20.71
20.72
20.726
20.729
20.726
20.722
20.717
20.718
20.718
20.718
20.717
20.717
20.714
20.712
20.711
20.712
20.711
20.703
20.694
20.686
20.681
20.679
20.679
20.688
20.702
20.712
20.711
20.705
20.701
20.704
20.705
20.706
20.706
20.707
20.701
20.692
20.684
20.681
20.678
20.68
20.683
20.688
20.689
20.687
20.688
20.686
20.686
20.68
20.674
20.661
20.65
20.642
20.642
20.648
20.657
20.662
20.665
20.667
20.669
20.669
20.666
20.658
20.651
20.647
20.647
20.648
20.65
20.65
20.651
20.652
20.649
20.639
20.631
20.632
20.641
20.651
20.654
20.657
20.659
20.66
20.66
20.656
20.651
20.642
20.639
20.639
20.643
20.648
20.649
20.645
20.639
20.634
20.635
20.635
20.636
20.636
20.639
20.641
20.642
20.639
20.639
20.643
20.647
20.646
20.639
20.636
20.639
20.644
20.648
20.649
20.646
20.64
20.634
20.627
20.622
20.616
20.609
20.602
20.598
20.599
20.602
20.611
20.623
20.633
20.636
20.629
20.617
20.604
20.594
20.593
20.6
20.607
20.609
20.608
20.61
20.615
20.617
20.618
20.615
20.616
20.611
20.607
20.6
20.602
20.609
20.62
20.625
20.627
20.628
20.629
20.624
20.617
20.612
20.61
20.606
20.598
20.592
20.591
20.595
20.6
20.604
20.601
20.593
20.58
20.574
20.576
20.582
20.583
20.579
20.575
20.574
20.573
20.57
20.566
20.567
20.57
20.576
20.578
20.578
20.577
20.577
20.576
20.575
20.576
20.578
20.579
20.575
20.568
20.564
20.561
20.562
20.562
20.568
20.576
20.587
20.592
20.591
20.584
20.577
20.572
20.572
20.571
20.57
20.567
20.561
20.554
20.551
20.553
20.555
20.556
20.556
20.558
20.564
20.569
20.575
20.574
20.572
20.568
20.566
20.568
20.571
20.58
20.585
20.589
20.591
20.593
20.594
20.593
20.594
20.6
20.608
20.613
20.614
20.615
20.614
20.612
20.605
20.598
20.592
20.592
20.595
20.601
20.61
20.618
20.625
20.629
20.634
20.638
20.645
20.649
20.65
20.644
20.633
20.622
20.619
20.621
20.625
20.626
20.625
20.625
20.622
20.619
20.618
20.624
20.632
20.641
20.645
20.65
20.655
20.658
20.655
20.646
20.634
20.625
20.622
20.626
20.63
20.634
20.633
20.632
20.634
20.638
20.644
20.643
20.645
20.647
20.657
20.667
20.672
20.672
20.67
20.667
20.664
20.662
20.666
20.667
20.664
20.653
20.645
20.635
20.63
20.625
20.628
20.637
20.651
20.665
20.673
20.678
20.683
20.687
20.689
20.686
20.68
20.674
20.674
20.674
20.678
20.678
20.68
20.679
20.682
20.686
20.689
20.688
20.686
20.685
20.685
20.685
20.684
20.686
20.687
20.692
20.696
20.702
20.704
20.706
20.71
20.717
20.722
20.718
20.712
20.707
20.711
20.718
20.726
20.728
20.732
20.731
20.731
20.723
20.724
20.73
20.74
20.741
20.739
20.739
20.743
20.751
20.754
20.758
20.757
20.755
20.749
20.745
20.744
20.749
20.757
20.762
20.761
20.754
20.747
20.74
20.736
20.736
20.738
20.742
20.746
20.751
20.758
20.762
20.76
20.753
20.749
20.749
20.749
20.752
20.753
20.756
20.754
20.751
20.748
20.749
20.751
20.748
20.746
20.749
20.759
20.771
20.775
20.774
20.769
20.766
20.766
20.763
20.757
20.748
20.743
20.742
20.745
20.748
20.75
20.752
20.756
20.756
20.753
20.746
20.744
20.743
20.741
20.734
20.73
20.73
20.736
20.741
20.745
20.746
20.744
20.739
20.737
20.737
20.74
20.738
20.738
20.738
20.745
20.754
20.765
20.771
20.768
20.761
20.758
20.76
20.763
20.766
20.766
20.762
20.757
20.752
20.752
20.752
20.753
20.748
20.744
20.74
20.743
20.748
20.755
20.761
20.767
20.775
20.785
20.795
20.804
20.806
20.805
20.799
20.791
20.778
20.767
20.764
20.768
20.771
20.773
20.775
20.776
20.777
20.778
20.785
20.794
20.798
20.799
20.796
20.797
20.799
20.804
20.81
20.811
20.811
20.809
20.818
20.828
20.837
20.841
20.846
20.854
20.863
20.869
20.871
20.872
20.873
20.868
20.862
20.856
20.857
20.862
20.869
20.878
20.885
20.889
20.888
20.887
20.887
20.89
20.892
20.895
20.899
20.912
20.923
20.931
20.931
20.931
20.933
20.942
20.953
20.965
20.974
20.978
20.976
20.971
20.965
20.957
20.949
20.946
20.952
20.966
20.98
20.988
20.984
20.974
20.964
20.963
20.966
20.972
20.974
20.979
20.984
20.991
20.993
20.994
20.997
20.998
20.999
20.995
20.995
21.003
21.017
21.033
21.043
21.046
21.045
21.042
21.044
21.047
21.05
21.051
21.053
21.05
21.044
21.036
21.035
21.039
21.046
21.053
21.058
21.056
21.049
21.042
21.041
21.044
21.05
21.061
21.073
21.078
21.073
21.07
21.07
21.074
21.073
21.069
21.063
21.055
21.048
21.043
21.043
21.049
21.059
21.067
21.072
21.074
21.078
21.082
21.085
21.087
21.089
21.085
21.08
21.071
21.067
21.064
21.07
21.076
21.081
21.082
21.081
21.084
21.088
21.09
21.087
21.082
21.078
21.079
21.083
21.086
21.091
21.095
21.096
21.088
21.081
21.078
21.082
21.088
21.095
21.104
21.11
21.112
21.108
21.105
21.105
21.106
21.104
21.103
21.105
21.108
21.106
21.107
21.11
21.118
21.119
21.118
21.115
21.114
21.112
21.11
21.107
21.108
21.112
21.115
21.113
21.107
21.105
21.109
21.114
21.12
21.12
21.117
21.11
21.099
21.092
21.088
21.092
21.094
21.099
21.103
21.111
21.116
21.117
21.112
21.107
21.102
21.103
21.107
21.111
21.109
21.107
21.107
21.107
21.104
21.097
21.092
21.094
21.097
21.097
21.092
21.093
21.098
21.107
21.11
21.105
21.096
21.091
21.086
21.081
21.074
21.072
21.077
21.087
21.094
21.094
21.086
21.07
21.059
21.057
21.067
21.078
21.084
21.085
21.082
21.074
21.066
21.061
21.064
21.065
21.065
21.062
21.062
21.065
21.069
21.074
21.079
21.086
21.089
21.083
21.073
21.062
21.059
21.061
21.066
21.069
21.067
21.059
21.05
21.046
21.05
21.056
21.059
21.058
21.056
21.056
21.057
21.059
21.061
21.064
21.068
21.073
21.074
21.07
21.062
21.06
21.061
21.065
21.064
21.068
21.072
21.075
21.07
21.067
21.065
21.069
21.072
21.076
21.078
21.077
21.073
21.076
21.082
21.087
21.087
21.085
21.083
21.081
21.078
21.076
21.072
21.069
21.067
21.073
21.081
21.086
21.087
21.088
21.096
21.106
21.117
21.122
21.124
21.122
21.115
21.108
21.105
21.11
21.114
21.115
21.111
21.109
21.107
21.104
21.095
21.085
21.077
21.076
21.078
21.078
21.078
21.082
21.09
21.099
21.104
21.104
21.099
21.098
21.1
21.114
21.128
21.137
21.136
21.131
21.127
21.123
21.121
21.122
21.125
21.124
21.118
21.106
21.098
21.101
21.111
21.122
21.125
21.123
21.12
21.118
21.115
21.111
21.105
21.1
21.094
21.092
21.093
21.1
21.104
21.105
21.099
21.098
21.097
21.099
21.098
21.093
21.085
21.079
21.079
21.087
21.095
21.097
21.095
21.094
21.093
21.094
21.091
21.087
21.081
21.076
21.073
21.074
21.074
21.077
21.077
21.074
21.064
21.054
21.049
21.05
21.052
21.051
21.049
21.049
21.049
21.051
21.052
21.054
21.055
21.055
21.05
21.038
21.024
21.014
21.014
21.015
21.012
21
20.991
20.984
20.987
20.99
20.994
20.993
20.993
20.996
21.003
21.006
20.998
20.985
20.972
20.969
20.969
20.976
20.98
20.985
20.985
20.987
20.988
20.989
20.985
20.976
20.968
20.963
20.965
20.968
20.971
20.97
20.971
20.974
20.976
20.971
20.961
20.952
20.945
20.943
20.943
20.947
20.95
20.949
20.944
20.938
20.934
20.935
20.938
20.945
20.951
20.957
20.959
20.956
20.954
20.955
20.96
20.963
20.964
20.96
20.951
20.94
20.935
20.939
20.952
20.963
20.967
20.962
20.951
20.942
20.942
20.947
20.952
20.956
20.962
20.968
20.969
20.966
20.958
20.949
20.939
20.933
20.933
20.937
20.943
20.946
20.946
20.944
20.946
20.949
20.952
20.953
20.951
20.947
20.944
20.948
20.955
20.964
20.965
20.959
20.946
20.934
20.925
20.921
20.925
20.934
20.947
20.957
20.96
20.955
20.948
20.94
20.937
20.936
20.939
20.942
20.945
20.943
20.936
20.928
20.926
20.93
20.936
20.936
20.933
20.931
20.933
20.935
20.936
20.934
20.926
20.913
20.902
20.898
20.903
20.914
20.925
20.93
20.93
20.927
20.923
20.92
20.919
20.919
20.919
20.918
20.915
20.912
20.907
20.905
20.902
20.899
20.893
20.889
20.886
20.884
20.883
20.883
20.886
20.893
20.904
20.912
20.914
20.907
20.9
20.896
20.9
20.905
20.908
20.907
20.902
20.894
20.888
20.886
20.89
20.891
20.888
20.883
20.881
20.885
20.887
20.886
20.882
20.88
20.878
20.878
20.88
20.884
20.89
20.891
20.889
20.886
20.885
20.886
20.889
20.892
20.897
20.898
20.899
20.897
20.898
20.897
20.898
20.895
20.891
20.883
20.879
20.877
20.874
20.871
20.87
20.871
20.868
20.864
20.856
20.855
20.859
20.875
20.889
20.899
20.899
20.896
20.891
20.885
20.878
20.869
20.866
20.868
20.872
20.874
20.871
20.868
20.865
20.863
20.859
20.859
20.867
20.877
20.885
20.886
20.887
20.887
20.888
20.889
20.892
20.898
20.905
20.908
20.906
20.9
20.897
20.898
20.9
20.898
20.89
20.88
20.871
20.868
20.87
20.872
20.873
20.873
20.872
20.868
20.866
20.865
20.866
20.859
20.851
20.845
20.848
20.856
20.863
20.863
20.857
20.851
20.849
20.849
20.852
20.85
20.847
20.842
20.839
20.838
20.839
20.84
20.84
20.84
20.838
20.838
20.833
20.831
20.829
20.832
20.837
20.84
20.84
20.837
20.833
20.83
20.825
20.822
20.821
20.826
20.829
20.831
20.827
20.821
20.816
20.812
20.808
20.803
20.799
20.798
20.799
20.8
20.804
20.808
20.812
20.813
20.815
20.817
20.821
20.824
20.824
20.822
20.82
20.815
20.807
20.795
20.781
20.772
20.772
20.776
20.782
20.785
20.788
20.79
20.793
20.793
20.793
20.789
20.788
20.787
20.791
20.795
20.802
20.801
20.791
20.777
20.771
20.77
20.77
20.769
20.77
20.776
20.781
20.781
20.776
20.772
20.77
20.77
20.769
20.77
20.773
20.772
20.763
20.751
20.749
20.753
20.762
20.763
20.761
20.757
20.755
20.755
20.758
20.761
20.765
20.774
20.786
20.797
20.797
20.79
20.776
20.767
20.764
20.769
20.773
20.776
20.779
20.784
20.786
20.784
20.788
20.797
20.803
20.802
20.795
20.795
20.796
20.796
20.79
20.783
20.779
20.781
20.788
20.794
20.797
20.794
20.791
20.791
20.794
20.796
20.796
20.798
20.801
20.809
20.816
20.821
20.82
20.817
20.814
20.814
20.809
20.8
20.787
20.779
20.776
20.775
20.77
20.763
20.76
20.765
20.772
20.775
20.775
20.776
20.778
20.777
20.771
20.763
20.755
20.754
20.759
20.769
20.778
20.784
20.789
20.792
20.789
20.78
20.768
20.76
20.752
20.747
20.744
20.745
20.75
20.758
20.769
20.771
20.77
20.759
20.749
20.74
20.74
20.745
20.754
20.762
20.761
20.755
20.748
20.745
20.746
20.75
20.752
20.75
20.744
20.739
20.738
20.739
20.743
20.753
20.763
20.773
20.778
20.78
20.771
20.758
20.745
20.742
20.744
20.747
20.745
20.74
20.735
20.732
20.733
20.732
20.733
20.731
20.735
20.737
20.74
20.735
20.726
20.714
20.707
20.705
20.707
20.705
20.705
20.708
20.719
20.726
20.73
20.73
20.733
20.737
20.744
20.749
20.751
20.747
20.741
20.738
20.736
20.735
20.731
20.727
20.723
20.723
20.725
20.726
20.729
20.73
20.732
20.729
20.727
20.726
20.729
20.731
20.728
20.726
20.73
20.745
20.757
20.76
20.752
20.743
20.734
20.724
20.716
20.715
20.724
20.736
20.742
20.738
20.73
20.723
20.725
20.725
20.723
20.713
20.704
20.697
20.698
20.703
20.71
20.714
20.717
20.718
20.718
20.719
20.714
20.705
20.696
20.69
20.688
20.69
20.697
20.702
20.701
20.693
20.682
20.672
20.663
20.656
20.653
20.652
20.658
20.664
20.672
20.677
20.677
20.671
20.66
20.649
20.639
20.633
20.629
20.635
20.642
20.65
20.651
20.651
20.646
20.645
20.642
20.641
20.637
20.634
