Tektronix:  IConnect
Version 6.1.0

File Created: April 06, 2017 at 12:35PM
Created By: Tek_Local_Admin

Format: Waveform
Type: Frequency Domain

== Begin Header ==

Type: Scattering

Data Type: dBMagnitude/Phase
Samples: 501
Step Size: 40meg
First Step: 0
Reference Impedance: 50

== End Header ==

Data:
-10.855	180
-11.044	174.85
-11.643	170.03
-12.759	166.27
-14.568	165.41
-17.171	172.61
-19.245	-161.94
-17.278	-131.55
-13.737	-120.73
-10.922	-120.88
-8.8787	-124.91
-7.366	-130.09
-6.1757	-135.51
-5.1738	-141.09
-4.3085	-147.06
-3.5859	-153.55
-3.0258	-160.44
-2.6289	-167.5
-2.3729	-174.55
-2.2316	178.45
-2.1958	171.39
-2.2783	164.25
-2.4974	157.12
-2.849	150.24
-3.2979	143.72
-3.8029	137.37
-4.3687	130.69
-5.0816	123.23
-6.0932	115
-7.571	106.7
-9.6382	99.798
-12.295	96.57
-15.248	99.359
-18.018	107.53
-21.002	118.73
-25.128	147.33
-22.93	-157.47
-17.322	-145.43
-13.926	-150.99
-12.186	-160.34
-11.605	-168.9
-11.736	-173.89
-11.965	-174.24
-11.736	-172.61
-11.189	-173.32
-10.923	-177.07
-11.332	179.04
-12.353	179.6
-13.108	-171.72
-12.418	-160.5
-10.875	-155.88
-9.5714	-156.88
-8.7333	-159.33
-8.1028	-160.87
-7.3404	-161.81
-6.3795	-164.14
-5.463	-168.93
-4.8285	-175.39
-4.5186	177.98
-4.4002	172.29
-4.2669	167.51
-4.0058	162.44
-3.7113	155.79
-3.6002	147.25
-3.8456	137.68
-4.485	128.41
-5.3957	120.57
-6.3497	114.17
-7.2017	107.71
-8.0687	99.106
-9.2944	87.021
-11.32	70.916
-14.689	49.643
-20.073	16.261
-24.385	-53.906
-20.959	-106.43
-17.96	-123.42
-15.618	-129.36
-13.349	-133.95
-11.335	-141.1
-9.8712	-150.74
-9.0838	-161.26
-8.9271	-170.8
-9.1952	-177.9
-9.5849	177.7
-9.8985	174.7
-10.214	171.64
-10.768	168.6
-11.699	167.48
-12.775	171.19
-13.248	-179.91
-12.689	-171.25
-11.673	-166.83
-10.709	-165.34
-9.8035	-164.86
-8.8035	-165.34
-7.7203	-167.86
-6.7514	-172.91
-6.088	-179.71
-5.7797	173.12
-5.7212	166.72
-5.7226	161.34
-5.6394	156.12
-5.4869	149.76
-5.4281	141.41
-5.6736	131.13
-6.3899	119.76
-7.6396	108.57
-9.3556	98.606
-11.388	89.896
-13.657	80.71
-16.347	67.201
-19.785	41.356
-22.024	-11.595
-18.882	-63.66
-15.197	-91.716
-12.696	-109.4
-11.066	-122.03
-9.9255	-131.4
-9.0139	-138.83
-8.2254	-145.55
-7.5822	-152.33
-7.1462	-159.26
-6.9501	-165.99
-6.9681	-172.04
-7.1353	-177.18
-7.4048	178.45
-7.786	174.74
-8.3165	171.98
-8.9765	170.98
-9.6019	172.52
-9.9158	176.21
-9.7846	-179.97
-9.3814	-177.75
-8.9553	-177.11
-8.5887	-177.03
-8.1991	-176.91
-7.6798	-177.11
-7.0392	-178.57
-6.4089	178.15
-5.9366	173.3
-5.695	167.6
-5.6751	161.7
-5.8272	155.92
-6.1145	150.18
-6.5494	144.23
-7.1982	137.91
-8.1663	131.33
-9.5924	124.94
-11.676	119.7
-14.746	117.87
-19.321	127.02
-23.193	172.17
-19.06	-146.45
-14.819	-137.51
-11.881	-137.8
-9.7476	-141.3
-8.1618	-146.33
-6.9993	-152.07
-6.1743	-157.95
-5.6127	-163.56
-5.2442	-168.67
-5.0007	-173.21
-4.8216	-177.27
-4.6709	178.83
-4.5593	174.72
-4.5462	170.17
-4.7163	165.32
-5.1376	160.76
-5.8232	157.4
-6.6937	156.34
-7.5368	158.4
-8.0354	163.17
-7.9921	168.5
-7.5448	172.06
-6.993	173.23
-6.5325	172.76
-6.2129	171.61
-5.9953	170.45
-5.8053	169.53
-5.5701	168.69
-5.2591	167.41
-4.9123	165.12
-4.6288	161.52
-4.5221	156.76
-4.6789	151.33
-5.1497	145.91
-5.9568	141.16
-7.1259	137.9
-8.6734	137.49
-10.478	142.4
-11.901	155.27
-11.826	172.56
-10.382	-175.36
-8.6888	-170.63
-7.2778	-170.35
-6.2117	-172.05
-5.4076	-174.39
-4.7596	-176.9
-4.1974	-179.65
-3.718	177.13
-3.3679	173.43
-3.1886	169.62
-3.1678	166.27
-3.2261	163.81
-3.2497	162.14
-3.1694	160.58
-3.0297	158.25
-2.9698	154.83
-3.1302	150.74
-3.5815	146.95
-4.3094	144.57
-5.2027	144.78
-6.0095	148.37
-6.3606	154.71
-6.0591	161.01
-5.3239	164.56
-4.5396	164.86
-3.9506	162.96
-3.6246	160.21
-3.52	157.6
-3.5459	155.68
-3.5986	154.56
-3.5911	153.94
-3.4939	153.16
-3.3648	151.62
-3.3201	149.16
-3.4665	146.23
-3.8551	143.65
-4.4661	142.39
-5.1855	143.46
-5.777	147.35
-5.946	153.22
-5.5872	158.75
-4.8972	162.02
-4.1583	162.78
-3.5373	161.84
-3.0731	160.07
-2.7377	158.04
-2.4897	155.97
-2.3006	153.89
-2.1614	151.76
-2.0763	149.56
-2.0537	147.36
-2.0999	145.26
-2.2111	143.44
-2.3652	142.06
-2.5201	141.19
-2.634	140.63
-2.7046	139.98
-2.7876	138.96
-2.9631	137.73
-3.2728	136.89
-3.6798	137.15
-4.0668	138.98
-4.2783	142.23
-4.1967	146.05
-3.8132	149.21
-3.2378	150.72
-2.6357	150.27
-2.154	148.17
-1.8854	145.06
-1.8716	141.76
-2.1005	139.16
-2.4746	138.2
-2.7865	139.25
-2.8112	141.41
-2.5276	142.74
-2.1593	142.05
-1.9536	139.73
-2.0185	137.01
-2.3243	135.08
-2.7593	134.7
-3.1753	136.18
-3.4144	139.31
-3.3362	143.28
-2.8878	146.69
-2.1789	148.09
-1.4436	146.8
-0.91863	143.28
-0.75407	138.74
-0.97865	134.75
-1.4717	132.89
-1.9446	134.04
-2.0369	137.28
-1.6336	139.83
-1.0145	139.6
-0.53855	136.78
-0.37824	132.83
-0.52506	129.17
-0.88295	126.71
-1.3193	125.91
-1.6857	126.73
-1.8572	128.54
-1.8006	130.29
-1.6034	131.08
-1.4171	130.74
-1.3625	129.84
-1.4516	129.44
-1.5558	130.34
-1.4567	132.35
-1.0337	133.87
-0.43533	133.14
0.029205	129.88
0.13602	125.35
-0.15355	121.29
-0.72667	119.23
-1.3447	120.1
-1.6691	123.66
-1.4505	127.69
-0.82478	129.32
-0.18331	127.67
0.17871	123.74
0.14556	119.09
-0.28281	115.21
-1.0131	113.6
-1.8035	115.54
-2.223	121.12
-1.8835	127.56
-0.92587	130.75
0.10116	129.18
0.76703	124.23
0.91719	118.14
0.59088	112.87
-0.05658	109.94
-0.75416	110.24
-1.1468	113.29
-1.0309	116.75
-0.56628	118.18
-0.078452	117.01
0.20194	114.11
0.19534	110.81
-0.039771	108.39
-0.33613	107.47
-0.51094	107.66
-0.508	107.78
-0.44202	106.9
-0.49141	105.15
-0.75195	103.58
-1.1556	103.53
-1.4672	105.66
-1.3972	109.05
-0.8744	111.21
-0.17644	110.21
0.33363	106.27
0.45531	100.8
0.13614	95.325
-0.60564	91.322
-1.6499	90.612
-2.5931	94.833
-2.7745	102.43
-2.0679	107.96
-1.0801	108.48
-0.32851	105.06
-0.012594	99.7
-0.1634	94.136
-0.72473	89.85
-1.5627	88.184
-2.4056	90.226
-2.8063	95.532
-2.4971	100.72
-1.7985	102.54
-1.1798	101.06
-0.83946	97.91
-0.78967	94.403
-0.97995	91.449
-1.3171	89.724
-1.6554	89.488
-1.8525	90.227
-1.8823	90.913
-1.8468	90.915
-1.8607	90.459
-1.9445	90.246
-2.0111	90.723
-1.949	91.577
-1.7362	91.96
-1.4603	91.242
-1.2399	89.385
-1.1645	86.766
-1.2886	83.949
-1.6399	81.721
-2.1733	81.235
-2.6556	83.597
-2.6863	87.99
-2.1612	91.192
-1.427	91.193
-0.82074	88.421
-0.49785	84.013
-0.52188	79.049
-0.91646	74.717
-1.6121	72.553
-2.3229	73.924
-2.5827	77.979
-2.2642	81.17
-1.747	81.399
-1.3729	79.361
-1.2519	76.408
-1.3783	73.589
-1.6985	71.754
-2.092	71.596
-2.3605	73.183
-2.3363	75.452
-2.0393	76.808
-1.6553	76.375
-1.3869	74.391
-1.3531	71.864
-1.5396	70.11
-1.7764	70.078
-1.8127	71.453
-1.5382	72.556
-1.0997	71.867
-0.74196	69.237
-0.62719	65.554
-0.80074	62.03
-1.2034	59.902
-1.6408	60.157
-1.791	62.501
-1.4744	64.619
-0.89897	64.316
-0.38327	61.43
-0.11323	56.9
-0.16766	51.811
-0.5656	47.367
-1.2288	45.01
-1.8912	45.912
-2.1388	49.408
-1.7925	52.419
-1.1455	52.411
-0.5857	49.427
-0.31243	44.799
-0.36263	39.884
-0.68864	35.764
-1.1833	33.282
-1.6687	32.879
-1.9316	34.099
-1.8623	35.486
-1.5509	35.566
-1.1922	33.818
-0.9541	30.603
-0.92797	26.743
-1.118	23.195
-1.4434	20.741
-1.7647	19.675
-1.9428	19.609
-1.9156	19.614
-1.7359	18.764
-1.5274	16.66
-1.412	13.474
-1.4718	9.7773
-1.729	6.3867
-2.1183	4.1512
-2.4819	3.4674
-2.6462	3.7705
-2.5616	3.7062
-2.3627	2.1153
-2.2749	-1.0517
-2.4592	-4.678
-2.8972	-7.1007
-3.3653	-7.1789
-3.5501	-5.3514
-3.2976	-3.6914
-2.7631	-4.283
-2.2608	-7.6634
-2.0437	-12.908
-2.2108	-18.394
-2.6993	-22.426
-3.2774	-23.771
-3.5879	-22.665
-3.4117	-21.411
-2.9106	-22.536
-2.437	-26.725
-2.2761	-33.12
-2.5957	-40.069
-3.4101	-45.266
-4.4541	-46.214
-5.0962	-42.312
-4.8104	-37.566
-3.89	-36.99
-2.9778	-41.45
-2.4634	-49.226
-2.4866	-58.156
-3.0177	-66.097
-3.8357	-71.185
-4.5173	-73.015
-4.7203	-73.862
-4.5672	-76.765
-4.4303	-82.48
-4.5477	-90.022
-4.9913	-98.12
-5.7303	-105.62
-6.6327	-111.64
-7.4969	-116.22
-8.2287	-120.52
-8.9398	-125.36
-9.7884	-130.29
-10.79	-133.76
-11.681	-134.16
-11.938	-132.19
-11.352	-132.09
-10.406	-136.95
-9.646	-145.93
