Tektronix:  IConnect
Version 6.1.0

File Created: April 06, 2017 at 12:35PM
Created By: Tek_Local_Admin

Format: Waveform
Type: Frequency Domain

== Begin Header ==

Type: Scattering

Data Type: dBMagnitude/Phase
Samples: 501
Step Size: 40meg
First Step: 0
Reference Impedance: 50

== End Header ==

Data:
-10.826	180
-10.804	174.12
-10.769	167.7
-10.794	160.5
-10.951	152.64
-11.278	144.5
-11.756	136.49
-12.318	128.8
-12.878	121.16
-13.384	112.83
-13.865	102.94
-14.396	90.91
-15.03	76.65
-15.736	60.374
-16.38	42.515
-16.766	23.734
-16.745	4.9053
-16.321	-13.108
-15.655	-29.68
-14.938	-44.361
-14.28	-56.737
-13.655	-66.612
-12.946	-74.502
-12.093	-81.771
-11.207	-89.757
-10.495	-98.774
-10.117	-108.05
-10.105	-116.19
-10.31	-121.79
-10.398	-124.53
-10.091	-126.39
-9.5095	-130.07
-9.0378	-136.26
-8.9525	-143.51
-9.285	-149.56
-9.7825	-152.46
-9.9516	-152.33
-9.5224	-152.6
-8.8407	-156.42
-8.399	-163.49
-8.4183	-171.69
-8.8413	-178.84
-9.3878	176.29
-9.7008	172.84
-9.7041	168.01
-9.7175	159.84
-10.132	148.54
-11.198	135.52
-13.019	122.45
-15.555	110.83
-18.562	100.69
-21.696	87.333
-24.48	57.947
-24.084	7.1472
-20.336	-32.766
-17.089	-57.612
-14.997	-74.982
-13.734	-87.026
-12.811	-94.601
-11.811	-99.842
-10.69	-105.7
-9.733	-113.55
-9.2234	-122.63
-9.2686	-130.94
-9.7195	-136.16
-10.099	-137.18
-9.9344	-136.64
-9.4037	-138.58
-9.0637	-143.62
-9.2678	-149.55
-10.055	-152.99
-10.974	-150.38
-10.981	-142.75
-9.8733	-138.55
-8.7002	-140.92
-8.0645	-146.46
-7.9441	-151.67
-8.0325	-154.76
-7.9582	-156.15
-7.5819	-158.1
-7.1295	-162.48
-6.9334	-169.09
-7.1665	-176.28
-7.7673	177.75
-8.4958	173.78
-9.1391	170.85
-9.7492	167.22
-10.632	162.27
-12.146	157.39
-14.521	156.39
-17.37	166.07
-18.739	-171.73
-17.895	-152.91
-16.627	-141.53
-15.22	-132.53
-13.377	-126.71
-11.437	-126.48
-9.9236	-130.85
-9.0505	-136.97
-8.7189	-142.09
-8.5887	-144.7
-8.2736	-145.61
-7.6924	-147.34
-7.1232	-151.42
-6.8999	-157.26
-7.2005	-162.74
-7.9041	-164.9
-8.4222	-162.17
-8.1563	-158.09
-7.4214	-157.63
-6.8819	-160.83
-6.8231	-164.99
-7.1745	-167.29
-7.5455	-165.89
-7.3737	-162.1
-6.592	-160.35
-5.7419	-162.63
-5.2376	-167.3
-5.1179	-172
-5.1941	-175.39
-5.2332	-177.57
-5.1386	-179.76
-5.0144	177
-5.0368	172.76
-5.2943	168.42
-5.7393	164.89
-6.2551	162.39
-6.7869	160.42
-7.4137	158.58
-8.2637	157.5
-9.3328	158.87
-10.309	164.25
-10.688	172.43
-10.416	179.5
-9.9413	-176.08
-9.5185	-172.77
-9.0313	-169.28
-8.2924	-166.28
-7.3609	-165.35
-6.4908	-166.9
-5.8653	-169.94
-5.4843	-173.12
-5.2185	-175.79
-4.9488	-178.31
-4.6911	178.52
-4.5813	174.47
-4.752	170.27
-5.2203	167.35
-5.8124	167.1
-6.1767	169.62
-6.0684	172.74
-5.6534	173.97
-5.2749	173.07
-5.1084	171.37
-5.1158	170.26
-5.1339	170.32
-5.0069	171.09
-4.7049	171.57
-4.3095	171.13
-3.9088	169.72
-3.5519	167.5
-3.2743	164.57
-3.1179	161.11
-3.1136	157.49
-3.2535	154.17
-3.4862	151.45
-3.7508	149.27
-4.0331	147.29
-4.3926	145.31
-4.9158	143.69
-5.6241	143.5
-6.3734	145.98
-6.8214	151.31
-6.6888	157.26
-6.1353	160.94
-5.5472	161.86
-5.1445	161.25
-4.9368	160.5
-4.8201	160.4
-4.6618	161.01
-4.3734	161.8
-3.949	162.03
-3.4548	161.12
-2.9951	158.85
-2.6799	155.42
-2.5941	151.37
-2.7727	147.52
-3.1886	144.74
-3.7434	143.86
-4.2515	145.32
-4.4829	148.58
-4.329	151.94
-3.9161	153.84
-3.4674	153.94
-3.1306	152.9
-2.9411	151.59
-2.8466	150.7
-2.7416	150.46
-2.5296	150.46
-2.2022	149.89
-1.86	148.17
-1.6407	145.45
-1.6229	142.53
-1.7744	140.36
-1.9593	139.51
-2.009	139.63
-1.8537	139.52
-1.6068	138.04
-1.4752	135.08
-1.6032	131.51
-2.0148	128.52
-2.6375	127.16
-3.3244	128.2
-3.8461	131.89
-3.9356	137.29
-3.4835	142.1
-2.6919	144.11
-1.9151	142.84
-1.4226	139.31
-1.3232	135.16
-1.5788	132.04
-2.0107	131.29
-2.3009	133.26
-2.1413	136.35
-1.5627	137.69
-0.92582	135.94
-0.55039	131.96
-0.55105	127.41
-0.89188	123.72
-1.4464	122
-2.0116	122.82
-2.3384	125.85
-2.2542	129.57
-1.8047	132.02
-1.2223	132.14
-0.75963	130.18
-0.563	127.31
-0.62989	124.94
-0.81326	124.15
-0.87519	124.97
-0.64571	126.07
-0.2046	125.64
0.18422	123.15
0.31006	119.52
0.13231	116.27
-0.22623	114.71
-0.5239	115.21
-0.53349	116.74
-0.25167	117.37
0.099471	116.02
0.28806	113.06
0.19604	109.58
-0.18166	106.83
-0.74949	105.93
-1.3031	107.62
-1.5532	111.57
-1.2911	115.85
-0.61809	117.88
0.11172	116.55
0.57065	112.63
0.59933	107.82
0.19995	104
-0.467	102.93
-1.0286	105.6
-1.0207	110.4
-0.39535	113.46
0.40387	112.64
0.96438	108.69
1.1009	103.35
0.78439	98.345
0.10154	95.302
-0.73076	95.512
-1.3604	99.295
-1.4293	105.04
-0.87978	109.58
-0.033639	110.71
0.71918	108.48
1.1468	104.21
1.1754	99.489
0.84093	95.802
0.29927	94.511
-0.13844	96.165
-0.14809	99.338
0.27918	101.31
0.8445	100.64
1.2555	97.758
1.3681	93.949
1.1874	90.65
0.85306	88.904
0.57482	88.791
0.49163	89.325
0.56784	89.29
0.65192	88.231
0.61428	86.612
0.42587	85.315
0.16264	85.093
-0.029731	86.154
-0.011959	87.886
0.24427	89.113
0.6293	88.902
0.98249	87.06
1.1685	83.98
1.0939	80.439
0.73119	77.602
0.18707	76.803
-0.26565	78.651
-0.3338	82.027
0.038323	84.605
0.63378	84.695
1.1596	82.094
1.3937	77.713
1.238	73.044
0.73961	69.683
0.087638	68.8
-0.439	70.513
-0.61845	73.574
-0.43778	76.173
-0.04746	77.193
0.38355	76.384
0.71614	73.947
0.83106	70.433
0.65932	66.854
0.24791	64.425
-0.23628	63.876
-0.60001	64.987
-0.7333	66.805
-0.65175	68.288
-0.44979	68.869
-0.21822	68.514
-0.0051381	67.381
0.16104	65.538
0.23391	63.022
0.14885	60.102
-0.13529	57.397
-0.59339	55.71
-1.1218	55.706
-1.5515	57.572
-1.7019	60.659
-1.5013	63.501
-1.0576	64.733
-0.56137	63.898
-0.16924	61.232
0.0037437	57.225
-0.14294	52.622
-0.67275	48.679
-1.5193	47.193
-2.3667	49.706
-2.6949	55.508
-2.2623	60.745
-1.4292	62.101
-0.70047	59.504
-0.35583	54.655
-0.45332	49.443
-0.91325	45.347
-1.5843	43.279
-2.2847	43.597
-2.8238	46.106
-3.0307	49.944
-2.8308	53.536
-2.3383	55.205
-1.8174	54.288
-1.5071	51.484
-1.4985	48.156
-1.7418	45.515
-2.1101	44.224
-2.4614	44.314
-2.6989	45.277
-2.8139	46.469
-2.8559	47.641
-2.8382	48.997
-2.6942	50.563
-2.3649	51.668
-1.9126	51.378
-1.4978	49.335
-1.2758	45.957
-1.338	42.145
-1.6962	39.019
-2.2703	37.723
-2.8681	39.12
-3.192	43.151
-2.9704	48.073
-2.2237	50.956
-1.3177	49.968
-0.66877	45.636
-0.48572	39.914
-0.75263	34.737
-1.3391	31.422
-2.0642	30.81
-2.6724	33.252
-2.8482	37.838
-2.4494	41.921
-1.7216	43.007
-1.0703	40.856
-0.74253	36.944
-0.76371	32.995
-1.0233	30.165
-1.3673	28.906
-1.6469	29.092
-1.7493	30.081
-1.6497	30.839
-1.4527	30.502
-1.327	29.084
-1.3696	27.458
-1.5392	26.654
-1.6841	27.175
-1.6272	28.54
-1.3065	29.375
-0.85716	28.434
-0.50489	25.602
-0.4076	21.752
-0.60717	18.084
-1.0485	15.745
-1.5827	15.671
-1.9515	18.165
-1.8639	22.018
-1.2614	24.529
-0.44325	23.668
0.20557	19.598
0.46659	13.834
0.29736	8.0419
-0.24293	3.6614
-1.0043	2.0237
-1.6709	3.9887
-1.8116	8.3595
-1.3142	11.584
-0.5511	11.279
0.077457	7.7833
0.37273	2.4983
0.27522	-3.1256
-0.18456	-7.6782
-0.86826	-9.8402
-1.4942	-8.8875
-1.7108	-5.7644
-1.3957	-3.23
-0.81454	-3.492
-0.32751	-6.5577
-0.14131	-11.159
-0.31102	-15.797
-0.77586	-18.986
-1.3178	-19.52
-1.5793	-17.699
-1.3819	-15.949
-0.93876	-16.377
-0.55544	-19.05
-0.40439	-22.96
-0.53763	-26.858
-0.8938	-29.427
-1.2601	-29.777
-1.348	-28.476
-1.0487	-27.548
-0.53218	-28.691
-0.05977	-32.195
0.17043	-37.357
0.048758	-42.991
-0.4388	-47.56
-1.141	-49.309
-1.6435	-47.448
-1.5135	-44.363
-0.88157	-43.956
-0.24273	-47.242
0.079154	-52.864
-0.025022	-59.01
-0.51843	-63.79
-1.1507	-65.497
-1.4518	-64.398
-1.2015	-63.817
-0.7426	-66.38
-0.4891	-71.644
-0.61518	-77.88
-1.1028	-83.382
-1.7913	-86.866
-2.4049	-88.042
-2.7072	-88.26
-2.7398	-89.622
-2.7623	-92.919
-2.9697	-97.444
-3.4064	-102.2
-4.0474	-106.51
-4.8529	-109.79
-5.7316	-111.36
-6.4654	-110.91
-6.7989	-109.76
-6.758	-110.48
-6.6736	-114.34
-6.8481	-120.61
-7.39	-127.75
-8.2246	-134.34
-9.1402	-139.84
-9.9128	-145.19
-10.526	-152.39
-11.211	-162.65
-12.177	-175.29
-13.364	171.39
-14.385	158.73
-14.705	146.37
-14.107	132.33
-12.947	115.59
-11.776	97.45
-10.957	80.111
-10.604	65.635
-10.59	55.792
