Tektronix:  IConnect
Version 6.1.0

File Created: June 02, 2017 at 01:33PM
Created By: Tek_Local_Admin

Format: Waveform
Type: Frequency Domain

== Begin Header ==

Type: Scattering

Data Type: dBMagnitude/Phase
Samples: 10001
Step Size: 2meg
First Step: 0
Reference Impedance: 50

== End Header ==

Data:
-0.75774	0
-0.88657	-17.289
-1.2197	-33.565
-1.6149	-48.2
-1.889	-61.382
-1.9356	-74.166
-1.8082	-87.696
-1.6505	-102.36
-1.5732	-117.79
-1.6037	-133.4
-1.7065	-148.77
-1.8323	-163.86
-1.9646	-178.88
-2.1304	166.08
-2.3659	151.22
-2.6655	136.98
-2.954	123.76
-3.1153	111.38
-3.0818	99.05
-2.9063	85.886
-2.716	71.591
-2.616	56.528
-2.6356	41.331
-2.7326	26.498
-2.8336	12.132
-2.8884	-2.0536
-2.9039	-16.446
-2.9269	-31.204
-3.0002	-46.185
-3.1327	-61.112
-3.3018	-75.79
-3.4774	-90.212
-3.6474	-104.49
-3.8246	-118.71
-4.0231	-132.79
-4.2383	-146.54
-4.4368	-159.83
-4.5736	-172.74
-4.6247	174.43
-4.6044	161.39
-4.548	147.99
-4.4823	134.28
-4.4128	120.34
-4.3375	106.13
-4.2692	91.541
-4.2429	76.522
-4.2972	61.235
-4.4478	46.01
-4.6712	31.182
-4.9156	16.886
-5.1324	2.9456
-5.3172	-10.956
-5.508	-24.978
-5.746	-38.957
-6.0332	-52.518
-6.3189	-65.372
-6.5289	-77.585
-6.6206	-89.576
-6.6137	-101.79
-6.5585	-114.34
-6.4809	-127.1
-6.363	-139.93
-6.1764	-153.04
-5.9334	-166.81
-5.7017	178.49
-5.5716	162.96
-5.6015	147.09
-5.7956	131.52
-6.0959	116.79
-6.4042	103.06
-6.6364	89.994
-6.78	77.033
-6.8879	63.863
-7.0141	50.642
-7.1541	37.759
-7.2427	25.385
-7.2114	13.198
-7.0584	0.5813
-6.8563	-12.865
-6.6916	-27.048
-6.6056	-41.549
-6.5838	-55.969
-6.5773	-70.184
-6.5534	-84.369
-6.5224	-98.789
-6.5282	-113.52
-6.6116	-128.36
-6.7785	-142.94
-6.9922	-156.95
-7.1914	-170.33
-7.3279	176.67
-7.3958	163.7
-7.4243	150.55
-7.444	137.22
-7.4626	123.85
-7.4681	110.47
-7.4517	96.992
-7.4245	83.318
-7.4068	69.44
-7.4121	55.477
-7.4333	41.564
-7.4512	27.728
-7.4551	13.87
-7.4556	-0.11808
-7.4756	-14.223
-7.5279	-28.29
-7.5998	-42.147
-7.6608	-55.757
-7.6875	-69.277
-7.6876	-82.936
-7.696	-96.825
-7.7462	-110.8
-7.8408	-124.57
-7.9439	-137.92
-7.9985	-150.91
-7.9736	-163.88
-7.8892	-177.22
-7.7995	168.92
-7.7503	154.71
-7.7504	140.45
-7.7736	126.3
-7.7879	112.24
-7.7879	98.041
-7.802	83.59
-7.8674	68.992
-7.9968	54.545
-8.1618	40.54
-8.3083	27.031
-8.3948	13.78
-8.4262	0.43686
-8.4428	-13.169
-8.4852	-26.917
-8.5595	-40.537
-8.634	-53.85
-8.6659	-66.935
-8.6376	-80.083
-8.5724	-93.576
-8.5155	-107.48
-8.5012	-121.65
-8.5348	-135.84
-8.5977	-149.91
-8.666	-163.85
-8.7301	-177.76
-8.7981	168.29
-8.8828	154.32
-8.9872	140.47
-9.095	126.79
-9.1878	113.27
-9.259	99.814
-9.3176	86.34
-9.3754	72.88
-9.4317	59.524
-9.4708	46.307
-9.477	33.143
-9.4515	19.87
-9.4157	6.3802
-9.396	-7.2887
-9.4039	-20.993
-9.4305	-34.597
-9.4556	-48.073
-9.4653	-61.507
-9.4636	-75.01
-9.4622	-88.619
-9.4698	-102.28
-9.4821	-115.93
-9.4859	-129.56
-9.4741	-143.27
-9.4567	-157.16
-9.4575	-171.26
-9.4968	174.59
-9.574	160.58
-9.6629	146.9
-9.7261	133.51
-9.741	120.23
-9.716	106.84
-9.6811	93.233
-9.6606	79.522
-9.6566	65.869
-9.6465	52.346
-9.6102	38.855
-9.5489	25.219
-9.4861	11.328
-9.4486	-2.7706
-9.4477	-16.928
-9.4743	-31.01
-9.511	-44.984
-9.5469	-58.907
-9.5836	-72.832
-9.6263	-86.746
-9.6717	-100.59
-9.7045	-114.35
-9.7102	-128.12
-9.6912	-142.06
-9.6728	-156.28
-9.6843	-170.73
-9.7431	174.77
-9.8422	160.42
-9.9571	146.34
-10.065	132.45
-10.163	118.63
-10.266	104.83
-10.39	91.138
-10.529	77.714
-10.655	64.655
-10.73	51.86
-10.74	39.065
-10.704	26.025
-10.657	12.671
-10.622	-0.89087
-10.6	-14.529
-10.574	-28.222
-10.537	-42.077
-10.507	-56.211
-10.514	-70.607
-10.581	-85.072
-10.706	-99.328
-10.857	-113.18
-10.988	-126.63
-11.075	-139.88
-11.121	-153.15
-11.152	-166.52
-11.186	-179.9
-11.215	166.82
-11.218	153.64
-11.184	140.42
-11.127	126.97
-11.074	113.26
-11.047	99.381
-11.048	85.504
-11.059	71.712
-11.062	57.953
-11.055	44.103
-11.053	30.087
-11.075	15.947
-11.127	1.8098
-11.2	-12.206
-11.275	-26.074
-11.337	-39.876
-11.393	-53.714
-11.458	-67.606
-11.548	-81.443
-11.656	-95.054
-11.754	-108.35
-11.811	-121.44
-11.817	-134.54
-11.793	-147.84
-11.77	-161.37
-11.765	-174.98
-11.769	171.43
-11.766	157.87
-11.751	144.2
-11.742	130.31
-11.766	116.25
-11.837	102.21
-11.938	88.391
-12.039	74.85
-12.111	61.474
-12.156	48.085
-12.188	34.603
-12.222	21.084
-12.254	7.6286
-12.269	-5.7406
-12.254	-19.123
-12.217	-32.659
-12.182	-46.397
-12.173	-60.241
-12.193	-74.007
-12.224	-87.55
-12.237	-100.88
-12.212	-114.16
-12.16	-127.62
-12.11	-141.32
-12.09	-155.18
-12.106	-169
-12.137	177.34
-12.156	163.8
-12.154	150.22
-12.147	136.48
-12.155	122.61
-12.188	108.74
-12.228	95.017
-12.249	81.402
-12.239	67.744
-12.209	53.888
-12.187	39.81
-12.189	25.617
-12.214	11.446
-12.249	-2.6453
-12.287	-16.697
-12.334	-30.767
-12.404	-44.837
-12.506	-58.782
-12.629	-72.441
-12.746	-85.737
-12.822	-98.762
-12.844	-111.75
-12.825	-124.92
-12.794	-138.35
-12.771	-151.98
-12.759	-165.72
-12.75	-179.55
-12.742	166.44
-12.753	152.19
-12.812	137.75
-12.936	123.36
-13.114	109.32
-13.3	95.794
-13.446	82.689
-13.532	69.743
-13.574	56.73
-13.603	43.633
-13.63	30.6
-13.639	17.76
-13.597	5.051
-13.492	-7.7759
-13.345	-20.978
-13.201	-34.636
-13.096	-48.632
-13.042	-62.754
-13.03	-76.839
-13.039	-90.847
-13.064	-104.84
-13.109	-118.85
-13.184	-132.83
-13.285	-146.63
-13.386	-160.16
-13.453	-173.49
-13.471	173.15
-13.461	159.53
-13.46	145.63
-13.492	131.63
-13.551	117.78
-13.602	104.17
-13.618	90.666
-13.6	77.062
-13.577	63.249
-13.577	49.322
-13.607	35.487
-13.643	21.873
-13.656	8.4287
-13.637	-5.0382
-13.602	-18.696
-13.583	-32.56
-13.597	-46.495
-13.642	-60.333
-13.694	-73.997
-13.733	-87.562
-13.755	-101.18
-13.778	-114.95
-13.825	-128.81
-13.9	-142.59
-13.982	-156.15
-14.042	-169.52
-14.064	177.12
-14.065	163.57
-14.076	149.83
-14.118	136.08
-14.179	122.53
-14.228	109.25
-14.234	96.098
-14.198	82.841
-14.149	69.342
-14.115	55.649
-14.107	41.921
-14.115	28.284
-14.118	14.738
-14.107	1.1792
-14.09	-12.501
-14.084	-26.325
-14.104	-40.218
-14.149	-54.062
-14.207	-67.779
-14.261	-81.372
-14.303	-94.911
-14.336	-108.45
-14.369	-121.99
-14.4	-135.47
-14.419	-148.85
-14.414	-162.2
-14.386	-175.62
-14.349	170.83
-14.32	157.17
-14.303	143.52
-14.286	129.94
-14.255	116.39
-14.211	102.75
-14.168	88.955
-14.143	75.055
-14.137	61.162
-14.137	47.342
-14.125	33.541
-14.099	19.623
-14.076	5.4787
-14.079	-8.8839
-14.128	-23.338
-14.227	-37.702
-14.36	-51.811
-14.502	-65.584
-14.628	-79.05
-14.722	-92.323
-14.783	-105.52
-14.819	-118.69
-14.834	-131.84
-14.821	-144.98
-14.776	-158.19
-14.706	-171.6
-14.633	174.73
-14.579	160.84
-14.556	146.87
-14.554	132.92
-14.559	118.99
-14.567	104.99
-14.595	90.838
-14.666	76.619
-14.79	62.545
-14.944	48.846
-15.085	35.601
-15.174	22.662
-15.195	9.7333
-15.172	-3.4192
-15.139	-16.833
-15.12	-30.368
-15.113	-43.845
-15.093	-57.192
-15.041	-70.495
-14.953	-83.937
-14.85	-97.658
-14.762	-111.66
-14.711	-125.83
-14.699	-139.99
-14.715	-154.05
-14.742	-167.97
-14.769	178.2
-14.795	164.38
-14.821	150.55
-14.853	136.68
-14.895	122.79
-14.946	108.94
-15.002	95.143
-15.052	81.418
-15.09	67.72
-15.114	53.986
-15.134	40.173
-15.159	26.304
-15.193	12.442
-15.232	-1.3562
-15.27	-15.083
-15.305	-28.765
-15.342	-42.412
-15.386	-55.988
-15.433	-69.433
-15.47	-82.727
-15.482	-95.929
-15.466	-109.16
-15.43	-122.55
-15.392	-136.16
-15.37	-149.96
-15.374	-163.87
-15.406	-177.8
-15.456	168.31
-15.513	154.47
-15.573	140.63
-15.641	126.77
-15.727	112.92
-15.834	99.19
-15.949	85.712
-16.051	72.53
-16.115	59.601
-16.128	46.813
-16.085	34.039
-15.991	21.157
-15.853	8.0409
-15.691	-5.4253
-15.538	-19.281
-15.423	-33.432
-15.363	-47.674
-15.348	-61.805
-15.35	-75.75
-15.348	-89.6
-15.339	-103.52
-15.343	-117.6
-15.386	-131.77
-15.473	-145.86
-15.586	-159.7
-15.69	-173.23
-15.753	173.42
-15.764	160.01
-15.744	146.32
-15.731	132.32
-15.752	118.18
-15.805	104.15
-15.862	90.4
-15.882	76.862
-15.85	63.289
-15.788	49.441
-15.74	35.287
-15.736	21.019
-15.773	6.8957
-15.819	-6.9608
-15.841	-20.656
-15.835	-34.424
-15.829	-48.425
-15.855	-62.622
-15.932	-76.819
-16.047	-90.814
-16.172	-104.53
-16.279	-118.06
-16.362	-131.58
-16.438	-145.19
-16.528	-158.89
-16.642	-172.52
-16.771	174.06
-16.89	160.95
-16.972	148.08
-17	135.31
-16.974	122.48
-16.908	109.46
-16.816	96.191
-16.717	82.643
-16.63	68.837
-16.573	54.859
-16.552	40.847
-16.559	26.941
-16.571	13.193
-16.567	-0.49237
-16.55	-14.298
-16.546	-28.331
-16.589	-42.493
-16.693	-56.499
-16.832	-70.039
-16.943	-83.014
-16.969	-95.666
-16.895	-108.45
-16.762	-121.73
-16.63	-135.56
-16.538	-149.71
-16.492	-163.95
-16.476	-178.1
-16.472	167.85
-16.47	153.84
-16.474	139.85
-16.487	125.89
-16.509	111.98
-16.533	98.138
-16.556	84.32
-16.578	70.487
-16.602	56.612
-16.631	42.688
-16.665	28.708
-16.706	14.649
-16.759	0.48435
-16.838	-13.784
-16.955	-28.082
-17.118	-42.249
-17.318	-56.074
-17.521	-69.394
-17.678	-82.226
-17.756	-94.809
-17.755	-107.48
-17.711	-120.41
-17.661	-133.56
-17.615	-146.72
-17.548	-159.79
-17.431	-172.93
-17.27	173.57
-17.111	159.48
-17.016	144.89
-17.024	130.11
-17.132	115.58
-17.295	101.62
-17.444	88.248
-17.53	75.182
-17.553	62.007
-17.554	48.49
-17.585	34.717
-17.664	20.999
-17.763	7.6526
-17.823	-5.2497
-17.795	-17.979
-17.676	-30.968
-17.514	-44.5
-17.368	-58.541
-17.273	-72.825
-17.225	-87.065
-17.198	-101.12
-17.167	-115.02
-17.126	-128.9
-17.082	-142.82
-17.047	-156.8
-17.025	-170.8
-17.016	175.17
-17.02	161.11
-17.039	147.01
-17.078	132.88
-17.137	118.73
-17.215	104.6
-17.309	90.525
-17.41	76.525
-17.507	62.601
-17.593	48.695
-17.67	34.728
-17.753	20.676
-17.858	6.6246
-17.986	-7.2549
-18.119	-20.817
-18.228	-34.039
-18.291	-47.032
-18.306	-59.946
-18.28	-72.88
-18.222	-85.884
-18.13	-99.021
-18.012	-112.42
-17.89	-126.22
-17.801	-140.47
-17.784	-155.05
-17.86	-169.69
-18.023	175.91
-18.237	162
-18.448	148.6
-18.612	135.49
-18.727	122.33
-18.834	108.92
-18.979	95.404
-19.171	82.188
-19.359	69.654
-19.45	57.799
-19.375	46.091
-19.15	33.822
-18.861	20.618
-18.597	6.6009
-18.4	-7.8474
-18.265	-22.39
-18.167	-36.897
-18.096	-51.41
-18.06	-65.965
-18.076	-80.476
-18.142	-94.752
-18.23	-108.65
-18.3	-122.22
-18.329	-135.72
-18.334	-149.42
-18.357	-163.4
-18.43	-177.47
-18.549	168.69
-18.668	155.27
-18.732	142.17
-18.716	129.02
-18.648	115.5
-18.585	101.55
-18.561	87.431
-18.569	73.473
-18.565	59.813
-18.507	46.284
-18.394	32.547
-18.267	18.361
-18.182	3.7569
-18.173	-11.015
-18.246	-25.643
-18.373	-39.913
-18.52	-53.788
-18.664	-67.373
-18.801	-80.782
-18.937	-94.043
-19.064	-107.11
-19.161	-120.02
-19.21	-132.93
-19.219	-146.09
-19.226	-159.6
-19.269	-173.33
-19.355	173.06
-19.445	159.84
-19.479	146.97
-19.424	134.13
-19.297	120.94
-19.149	107.28
-19.019	93.289
-18.915	79.155
-18.827	64.951
-18.758	50.624
-18.73	36.162
-18.769	21.735
-18.872	7.6571
-18.996	-5.8173
-19.069	-18.726
-19.039	-31.486
-18.917	-44.673
-18.772	-58.626
-18.682	-73.264
-18.693	-88.205
-18.803	-102.97
-18.957	-117.21
-19.079	-130.92
-19.119	-144.47
-19.092	-158.29
-19.054	-172.54
-19.057	172.98
-19.105	158.64
-19.158	144.7
-19.165	131.06
-19.113	117.41
-19.033	103.5
-18.966	89.332
-18.933	75.094
-18.923	60.904
-18.92	46.696
-18.936	32.305
-19.007	17.685
-19.168	3.0353
-19.42	-11.281
-19.721	-24.948
-19.996	-37.942
-20.188	-50.612
-20.298	-63.463
-20.384	-76.762
-20.508	-90.359
-20.688	-103.81
-20.876	-116.69
-20.983	-128.94
-20.939	-141
-20.746	-153.54
-20.476	-166.96
-20.214	178.74
-20.014	163.84
-19.896	148.65
-19.861	133.38
-19.914	118.23
-20.052	103.42
-20.254	89.218
-20.47	75.771
-20.643	62.988
-20.738	50.55
-20.759	38.124
-20.734	25.556
-20.675	12.84
-20.58	-0.048192
-20.448	-13.256
-20.303	-26.944
-20.188	-41.099
-20.133	-55.47
-20.125	-69.732
-20.122	-83.726
-20.076	-97.593
-19.977	-111.69
-19.869	-126.3
-19.818	-141.39
-19.869	-156.61
-20.021	-171.47
-20.215	174.4
-20.367	160.97
-20.421	147.74
-20.402	134.11
-20.397	119.83
-20.487	105.17
-20.693	90.755
-20.951	77.062
-21.159	64.113
-21.248	51.368
-21.241	38.156
-21.227	24.241
-21.28	9.9465
-21.404	-4.1719
-21.537	-17.749
-21.597	-30.889
-21.547	-44.105
-21.433	-57.883
-21.34	-72.291
-21.329	-86.974
-21.408	-101.43
-21.529	-115.3
-21.628	-128.6
-21.665	-141.62
-21.652	-154.74
-21.624	-168.09
-21.614	178.35
-21.631	164.69
-21.675	150.93
-21.759	137.07
-21.9	123.23
-22.099	109.66
-22.313	96.648
-22.467	84.198
-22.494	71.903
-22.395	59.141
-22.239	45.507
-22.109	31.052
-22.059	16.159
-22.09	1.2921
-22.165	-13.195
-22.23	-27.168
-22.229	-40.763
-22.139	-54.325
-21.978	-68.236
-21.8	-82.725
-21.669	-97.765
-21.632	-113.1
-21.704	-128.38
-21.871	-143.29
-22.092	-157.66
-22.324	-171.5
-22.53	175
-22.704	161.52
-22.879	147.83
-23.1	133.99
-23.388	120.34
-23.707	107.29
-23.961	94.931
-24.071	82.771
-24.05	70.041
-24.001	56.379
-24.028	42.128
-24.154	28.048
-24.298	14.745
-24.334	2.145
-24.196	-10.569
-23.956	-24.264
-23.767	-39.086
-23.74	-54.434
-23.897	-69.424
-24.162	-83.357
-24.408	-96.1
-24.541	-108.2
-24.573	-120.44
-24.602	-133.1
-24.698	-145.77
-24.833	-157.81
-24.886	-169.03
-24.751	179.88
-24.45	167.88
-24.122	154.48
-23.897	140.05
-23.813	125.37
-23.811	111.1
-23.783	97.325
-23.664	83.507
-23.492	69.034
-23.365	53.793
-23.358	38.225
-23.473	22.982
-23.641	8.5261
-23.766	-5.1599
-23.785	-18.582
-23.721	-32.351
-23.649	-46.727
-23.642	-61.54
-23.725	-76.409
-23.877	-91.003
-24.056	-105.21
-24.232	-119.15
-24.405	-132.94
-24.586	-146.55
-24.757	-159.77
-24.856	-172.58
-24.824	174.62
-24.674	161.16
-24.498	146.64
-24.407	131.22
-24.464	115.55
-24.64	100.37
-24.838	86.007
-24.968	72.158
-25.016	58.182
-25.057	43.66
-25.186	28.737
-25.448	13.971
-25.818	-0.028262
-26.214	-12.898
-26.529	-24.726
-26.689	-36.042
-26.692	-47.553
-26.596	-59.759
-26.486	-72.773
-26.426	-86.365
-26.443	-100.11
-26.512	-113.59
-26.57	-126.6
-26.555	-139.32
-26.444	-152.15
-26.271	-165.48
-26.102	-179.33
-25.982	166.58
-25.905	152.65
-25.821	139.1
-25.664	125.75
-25.42	112.04
-25.149	97.493
-24.957	82.024
-24.934	66.069
-25.109	50.379
-25.423	35.693
-25.743	22.286
-25.943	9.658
-26.009	-3.1316
-26.038	-16.63
-26.137	-30.573
-26.317	-44.245
-26.48	-57.194
-26.497	-69.779
-26.343	-83.018
-26.134	-97.656
-26.024	-113.56
-26.102	-129.96
-26.356	-145.94
-26.689	-160.88
-26.966	-174.86
-27.119	171.36
-27.212	156.96
-27.389	141.88
-27.753	126.8
-28.293	112.82
-28.862	100.68
-29.256	90.051
-29.397	79.581
-29.406	68.217
-29.452	56.141
-29.564	44.275
-29.618	33.138
-29.473	22.097
-29.151	9.8793
-28.835	-4.0574
-28.693	-19.072
-28.762	-33.908
-28.923	-47.469
-28.945	-59.645
-28.668	-71.746
-28.174	-85.447
-27.708	-101.26
-27.471	-118.45
-27.547	-135.76
-27.898	-151.86
-28.362	-165.72
-28.676	-177.34
-28.66	171.81
-28.384	159.96
-28.07	146.49
-27.889	132
-27.88	117.47
-27.97	103.63
-28.041	90.595
-28.002	77.911
-27.843	64.859
-27.625	50.954
-27.427	36.114
-27.308	20.529
-27.3	4.5146
-27.412	-11.551
-27.619	-27.293
-27.862	-42.539
-28.083	-57.457
-28.274	-72.455
-28.491	-87.817
-28.814	-103.38
-29.289	-118.55
-29.875	-132.53
-30.437	-144.89
-30.809	-156.07
-30.931	-167.31
-30.92	-179.7
-30.962	166.7
-31.175	152.72
-31.552	139.46
-31.961	127.73
-32.194	117.44
-32.116	107.35
-31.795	95.994
-31.418	82.836
-31.149	68.269
-31.067	53.097
-31.177	38.183
-31.416	24.284
-31.659	11.853
-31.735	0.66889
-31.531	-10.398
-31.105	-22.808
-30.655	-37.322
-30.393	-53.686
-30.464	-70.958
-30.919	-87.814
-31.686	-102.74
-32.514	-114.68
-33.052	-124.2
-33.155	-133.71
-33.047	-145.11
-33.019	-158
-33.13	-170.76
-33.169	177.7
-32.855	166.49
-32.18	153.31
-31.441	136.96
-30.936	118.16
-30.802	98.599
-31.003	80.094
-31.334	64.03
-31.458	50.382
-31.162	37.022
-30.618	21.507
-30.198	3.3371
-30.177	-16.387
-30.689	-35.972
-31.735	-53.367
-33.107	-66.223
-34.226	-73.45
-34.489	-78.503
-34.126	-86.684
-33.803	-98.754
-33.845	-112.37
-34.19	-125.13
-34.536	-136.02
-34.581	-146.17
-34.318	-157.87
-34.013	-172.25
-33.902	171.31
-34.064	154.06
-34.453	137.04
-34.971	120.86
-35.514	105.72
-35.99	91.555
-36.332	78.018
-36.526	64.504
-36.649	50.441
-36.859	35.831
-37.304	21.679
-37.979	10.031
-38.499	2.8776
-38.167	-1.5564
-36.929	-9.4192
-35.55	-23.563
-34.627	-42.217
-34.382	-62.705
-34.847	-82.473
-35.889	-98.735
-37.01	-108.82
-37.283	-114.15
-36.501	-122.16
-35.534	-136.3
-35.012	-154.25
-35.061	-172.76
-35.499	170.8
-35.881	157.46
-35.778	145.03
-35.296	129.74
-34.947	110.3
-35.154	88.012
-36.141	65.187
-37.992	44.83
-40.49	31.477
-42.409	28.66
-42.341	25.972
-41.687	11.789
-41.97	-10.813
-43.776	-36.954
-47.91	-62.083
-57.29	-62.215
-53.447	9.4544
-47.626	-11.468
-45.497	-44.081
-45.233	-79.805
-46.349	-117.23
-48.863	-155.88
-53.362	164.56
-63.126	124.65
-65.148	-96.82
-56.627	-136.87
-53.998	-177.32
-53.501	141.34
-54.353	97.183
-55.862	46.551
-56.464	-11.045
-55.196	-63.251
-53.375	-102.47
-51.888	-132.45
-50.885	-157.47
-50.445	179.9
-50.759	158.78
-52.167	140.34
-55.136	130.3
-58.491	148.66
-55.156	175.62
-50.729	169.49
-47.934	151.73
-46.369	130.62
-45.71	108.88
-45.728	88.006
-46.185	69.153
-46.734	52.988
-46.958	38.56
-46.687	23.079
-46.176	4.5363
-45.796	-16.543
-45.782	-37.963
-46.176	-56.616
-46.618	-69.171
-46.216	-75.944
-44.614	-84.399
-42.708	-99.346
-41.281	-119.1
-40.613	-140.77
-40.762	-161.8
-41.661	-179.51
-42.941	169.25
-43.647	165.16
-43.078	161.07
-41.99	150.51
-41.224	134.76
-40.991	117.07
-41.149	99.77
-41.401	83.708
-41.478	67.999
-41.374	51.04
-41.299	32.381
-41.456	13.246
-41.882	-4.1022
-42.332	-17.349
-42.269	-26.412
-41.407	-35.12
-40.16	-46.829
-39.043	-61.03
-38.222	-75.637
-37.573	-89.155
-36.861	-101.67
-35.992	-114.75
-35.129	-129.82
-34.546	-146.92
-34.441	-164.91
-34.896	178.02
-35.821	164.28
-36.777	156.19
-36.947	152.55
-36.085	146.91
-34.902	135.62
-33.985	120.17
-33.495	103.07
-33.361	86.238
-33.39	70.745
-33.353	56.549
-33.12	42.493
-32.765	27.28
-32.491	10.549
-32.486	-6.9895
-32.837	-23.896
-33.472	-38.273
-34.036	-48.59
-33.963	-56.172
-33.121	-65.768
-32.041	-80.341
-31.247	-99.216
-30.996	-120.5
-31.388	-142.21
-32.422	-162.16
-33.921	-177.51
-35.233	174.15
-35.368	169.45
-34.472	160.08
-33.557	144.35
-33.154	125.39
-33.328	106.44
-33.91	90.143
-34.476	77.935
-34.54	68.234
-34.102	57.278
-33.631	43.651
-33.473	29.008
-33.61	15.921
-33.658	5.7404
-33.179	-3.5847
-32.273	-15.923
-31.447	-32.599
-31.091	-52.344
-31.377	-73.087
-32.309	-92.556
-33.697	-108.35
-35.035	-119.03
-35.7	-126.82
-35.735	-136.68
-35.772	-149.83
-36.188	-163.26
-36.764	-172.93
-36.664	-177.93
-35.387	175.75
-33.632	163.27
-32.132	146.02
-31.121	126.9
-30.564	108.1
-30.305	90.938
-30.13	75.7
-29.88	61.583
-29.565	47.401
-29.313	32.652
-29.229	17.726
-29.306	3.3227
-29.439	-10.292
-29.528	-23.654
-29.585	-37.683
-29.733	-52.804
-30.091	-68.572
-30.67	-84.017
-31.344	-98.324
-31.904	-111.55
-32.214	-124.82
-32.333	-139.35
-32.424	-155.21
-32.569	-171.5
-32.71	172.79
-32.705	157.89
-32.483	143.03
-32.154	127.26
-31.933	110.6
-31.983	94.068
-32.318	79.199
-32.749	67.321
-32.914	58.161
-32.62	49.083
-32.115	37.551
-31.796	23.465
-31.894	8.4184
-32.402	-5.5364
-33.074	-16.848
-33.511	-25.863
-33.524	-35.2
-33.349	-47.051
-33.314	-61.172
-33.537	-75.885
-33.887	-89.603
-34.083	-101.94
-33.916	-114.11
-33.435	-127.66
-32.843	-142.97
-32.285	-159.31
-31.785	-175.83
-31.317	167.81
-30.889	151.54
-30.563	135.39
-30.395	119.81
-30.359	105.5
-30.327	92.795
-30.14	81.057
-29.779	68.871
-29.407	55.26
-29.228	40.473
-29.337	25.676
-29.651	12.204
-29.921	0.57736
-29.891	-10.43
-29.582	-23.051
-29.276	-38.302
-29.231	-55.39
-29.536	-72.621
-30.074	-88.219
-30.524	-101.34
-30.543	-113.48
-30.173	-127.55
-29.807	-144.7
-29.794	-163.82
-30.297	177.22
-31.271	161.1
-32.301	150.3
-32.609	143.59
-32.029	134.61
-31.325	120.11
-31.128	101.9
-31.668	83.098
-32.903	67.194
-34.329	57.754
-34.847	53.687
-34.176	46.131
-33.379	30.996
-33.215	11.092
-33.905	-9.6972
-35.398	-27.244
-37.149	-36.709
-37.706	-38.171
-36.558	-43.238
-35.114	-56.909
-34.199	-75.055
-33.893	-93.575
-33.981	-109.84
-34.092	-123.01
-33.92	-134.58
-33.535	-146.92
-33.262	-160.59
-33.313	-174.05
-33.595	174.88
-33.673	167.06
-33.139	159.74
-32.187	149.06
-31.331	134.22
-30.894	116.78
-30.956	98.693
-31.428	81.699
-32.085	66.961
-32.606	54.44
-32.772	42.541
-32.639	29.407
-32.414	14.558
-32.225	-1.3194
-32.069	-17.41
-31.887	-33.387
-31.65	-49.414
-31.407	-65.732
-31.24	-82.231
-31.212	-98.418
-31.319	-113.62
-31.471	-127.32
-31.521	-139.73
-31.377	-151.89
-31.102	-165.06
-30.863	-179.79
-30.81	164.16
-31.028	147.46
-31.53	130.82
-32.282	114.83
-33.237	99.997
-34.329	86.942
-35.401	76.527
-36.109	68.957
-36.098	62.03
-35.459	52.147
-34.674	37.91
-34.155	20.575
-34.092	2.4663
-34.467	-13.814
-34.994	-25.833
-35.052	-33.273
-34.19	-40.576
-32.846	-52.582
-31.723	-69.332
-31.175	-88.529
-31.302	-107.85
-32.087	-124.99
-33.322	-137.1
-34.303	-142.06
-34.083	-144.07
-32.936	-151.16
-31.827	-164.45
-31.185	179.03
-31.018	161.9
-31.157	145.79
-31.345	131.3
-31.349	117.71
-31.109	103.53
-30.76	87.718
-30.485	70.326
-30.401	52.053
-30.559	33.782
-30.957	16.445
-31.53	0.95518
-32.128	-12.031
-32.531	-22.664
-32.563	-32.257
-32.247	-42.741
-31.796	-55.347
-31.455	-70.051
-31.378	-86.068
-31.618	-102.4
-32.149	-118.08
-32.862	-132.34
-33.581	-144.97
-34.139	-156.63
-34.498	-168.45
-34.745	178.92
-34.957	165.73
-35.099	152.55
-35.06	139.38
-34.79	125.46
-34.387	110.08
-34.027	93.323
-33.848	76.032
-33.896	59.384
-34.105	44.49
-34.307	31.924
-34.297	21.127
-34.008	10.545
-33.571	-1.1179
-33.182	-14.107
-32.977	-27.898
-33	-41.658
-33.203	-54.6
-33.46	-66.358
-33.632	-77.252
-33.639	-88.186
-33.515	-100.17
-33.379	-113.79
-33.372	-128.95
-33.592	-145.01
-34.08	-160.96
-34.785	-175.44
-35.472	172.89
-35.715	163.69
-35.294	153.89
-34.523	140.74
-33.862	124.38
-33.571	106.68
-33.679	89.889
-33.985	75.888
-34.088	64.958
-33.694	54.649
-32.986	41.95
-32.393	26.301
-32.191	9.1759
-32.424	-7.4561
-32.941	-21.882
-33.405	-33.37
-33.453	-43.336
-33.052	-54.693
-32.506	-68.942
-32.081	-85.547
-31.865	-103.35
-31.827	-121.41
-31.892	-139.26
-32.002	-156.88
-32.171	-174.37
-32.462	168.5
-32.923	152.6
-33.474	139.11
-33.854	128.56
-33.785	119.51
-33.301	109.36
-32.723	96.826
-32.339	82.55
-32.25	67.906
-32.398	53.988
-32.659	41.098
-32.96	28.847
-33.342	16.906
-33.868	5.7591
-34.463	-3.4302
-34.809	-10.258
-34.595	-16.882
-33.954	-26.514
-33.319	-40.113
-33.006	-56.461
-33.115	-73.718
-33.578	-90.191
-34.191	-104.77
-34.689	-117.52
-34.92	-129.73
-34.959	-142.69
-34.98	-156.49
-35.059	-170.3
-35.127	176.6
-35.069	164
-34.879	151.11
-34.678	137.51
-34.575	123.71
-34.552	110.63
-34.459	98.594
-34.155	86.729
-33.695	73.671
-33.277	59.008
-33.052	43.54
-33.011	28.516
-32.981	14.639
-32.756	1.2317
-32.328	-13.387
-31.922	-30.199
-31.809	-48.647
-32.147	-67.04
-32.916	-82.926
-33.741	-93.77
-33.846	-100.38
-32.965	-108.96
-31.818	-123.34
-31.067	-142.14
-30.973	-162.6
-31.573	177.98
-32.7	162.45
-33.818	153
-34.121	147.53
-33.547	139.59
-32.853	126.69
-32.537	111.02
-32.637	95.346
-32.916	81.277
-33.067	68.464
-32.999	54.989
-32.928	39.491
-33.14	22.433
-33.78	5.5284
-34.781	-9.0916
-35.809	-19.914
-36.398	-27.992
-36.476	-36.812
-36.465	-47.957
-36.691	-59.722
-37.045	-69.508
-37.036	-76.88
-36.36	-85.368
-35.398	-98.336
-34.681	-115.42
-34.447	-134.44
-34.686	-153.19
-35.183	-169.94
-35.568	175.66
-35.555	161.78
-35.246	145.95
-34.987	127.75
-35.029	108.68
-35.405	91.111
-35.865	77.353
-35.844	67.54
-35.009	57.61
-33.792	43.75
-32.78	26.209
-32.267	7.0569
-32.32	-11.503
-32.829	-27.325
-33.443	-38.842
-33.631	-47.037
-33.21	-55.915
-32.586	-68.427
-32.246	-84.254
-32.441	-101.52
-33.217	-118.09
-34.442	-131.8
-35.729	-141
-36.46	-146.68
-36.38	-153.64
-35.972	-165.43
-35.769	178.46
-35.995	160.04
-36.663	141.4
-37.626	124.61
-38.496	111.26
-38.717	100.29
-38.149	87.637
-37.272	70.728
-36.602	50.278
-36.439	28.171
-36.953	6.3991
-38.279	-12.553
-40.413	-24.273
-42.42	-21.72
-41.789	-10.956
-39.324	-12.08
-37.154	-23.501
-35.647	-39.25
-34.695	-56.684
-34.187	-74.786
-34.065	-93.064
-34.301	-111.06
-34.869	-128.09
-35.697	-143.15
-36.568	-155.1
-37.074	-163.97
-36.889	-172.38
-36.181	176.39
-35.381	161.6
-34.773	144.52
-34.439	126.74
-34.343	109.44
-34.4	93.291
-34.531	78.418
-34.704	64.725
-34.922	52.308
-35.141	41.596
-35.193	32.754
-34.871	24.66
-34.172	15.022
-33.366	2.3027
-32.759	-13.344
-32.529	-30.875
-32.74	-49.125
-33.389	-66.92
-34.386	-82.966
-35.479	-96.166
-36.26	-106.93
-36.475	-118
-36.303	-132.16
-36.104	-149.93
-36.121	-170.17
-36.449	168.86
-37.046	148.95
-37.756	131.59
-38.327	117.28
-38.541	104.95
-38.438	92.519
-38.321	79.022
-38.492	65.346
-39.079	53.757
-39.862	47.429
-39.969	47.564
-38.641	47.26
-36.632	39.289
-34.887	24.547
-33.719	5.9878
-33.169	-14.347
-33.225	-35.032
-33.843	-54.742
-34.924	-71.966
-36.205	-85.07
-37.156	-93.768
-37.324	-101.48
-36.967	-112.59
-36.684	-127.61
-36.832	-144.4
-37.498	-160.09
-38.475	-171.41
-39.038	-176.64
-38.426	179.56
-37.07	170.54
-35.83	156.08
-35.074	139.01
-34.82	121.85
-34.88	106.22
-34.981	92.36
-34.937	78.904
-34.837	64.126
-34.949	47.64
-35.483	30.646
-36.466	15.236
-37.639	3.6964
-38.361	-3.5707
-38.129	-11.115
-37.378	-23.881
-36.783	-41.57
-36.606	-61.626
-36.838	-81.816
-37.353	-100.47
-37.942	-116.55
-38.376	-130.17
-38.568	-142.27
-38.576	-153.31
-38.373	-162.96
-37.779	-171.88
-36.778	177.59
-35.711	163.67
-34.987	146.85
-34.866	129.07
-35.407	113.18
-36.288	102.77
-36.527	98.482
-35.488	92.639
-34.052	78.912
-33.134	58.832
-33.082	35.771
-33.986	12.797
-35.845	-6.5106
-38.254	-16.25
-39.284	-13.819
-37.841	-16.629
-36.181	-32.251
-35.349	-53.848
-35.372	-76.286
-36.06	-96.069
-36.956	-110.32
-37.242	-119.51
-36.601	-129.55
-35.698	-144.14
-35.139	-161.78
-35.084	-179.56
-35.363	164.88
-35.575	152
-35.458	139.5
-35.233	124.8
-35.338	107.95
-36.059	91.327
-37.321	78.826
-38.347	73.579
-38.042	70.658
-36.878	60.922
-36.027	44.319
-35.954	25.185
-36.609	7.7939
-37.482	-4.4983
-37.658	-12.762
-36.916	-24.065
-36.13	-42.092
-36.048	-64.757
-37.065	-88.536
-39.516	-108.23
-43.187	-110.77
-43.126	-90.145
-39.477	-93.424
-37.105	-113.73
-36.249	-138.4
-36.709	-162.18
-38.299	179.97
-40.065	175.21
-39.502	178.77
-37.199	170.47
-35.404	151.27
-34.621	128.02
-34.812	104.8
-35.838	84.858
-37.313	71.972
-38.126	67.685
-37.374	63.623
-36.001	52.146
-34.97	35.137
-34.52	15.937
-34.636	-3.2471
-35.231	-20.773
-36.141	-35.197
-37.06	-45.491
-37.529	-52.131
-37.212	-58.455
-36.345	-68.557
-35.492	-83.482
-35.045	-101.83
-35.165	-121.72
-35.928	-141.23
-37.318	-157.65
-38.923	-167.17
-39.54	-169.72
-38.637	-175.08
-37.377	171.35
-36.592	152.61
-36.458	132.49
-36.864	114.07
-37.441	99.591
-37.606	88.715
-37.087	77.589
-36.263	63.104
-35.605	45.616
-35.318	26.879
-35.4	8.4213
-35.772	-8.8217
-36.344	-24.37
-37.049	-37.888
-37.8	-48.758
-38.358	-56.25
-38.287	-61.377
-37.415	-68.226
-36.206	-80.087
-35.231	-96.558
-34.779	-115.5
-34.925	-134.68
-35.603	-151.89
-36.546	-164.96
-37.176	-173.36
-37.021	179.21
-36.4	168.34
-35.917	153.93
-35.854	138.3
-36.182	123.9
-36.628	112.45
-36.77	103.7
-36.381	95.033
-35.649	84.044
-34.865	70.361
-34.177	54.55
-33.633	36.974
-33.289	17.713
-33.238	-3.0736
-33.59	-24.899
-34.453	-46.864
-35.926	-67.398
-38.006	-83.681
-40.214	-91.346
-41.09	-90.879
-40.21	-94.718
-39.106	-107.56
-38.6	-124.8
-38.745	-141.9
-39.208	-155.55
-39.315	-165.13
-38.601	-174.87
-37.456	170.8
-36.493	151.86
-36.005	130.28
-36.057	107.86
-36.633	85.935
-37.717	65.649
-39.296	48.444
-41.312	37.083
-43.154	36.475
-42.885	44.798
-40.309	44.552
-37.523	31.885
-35.345	12.382
-33.862	-10.295
-33.05	-34.17
-32.899	-57.846
-33.404	-79.841
-34.496	-98.159
-35.868	-110.37
-36.772	-115.95
-36.603	-120.22
-35.881	-129.08
-35.404	-142.08
-35.46	-156.09
-35.939	-168.3
-36.449	-177.31
-36.529	175.34
-36.156	165.94
-35.774	152.71
-35.748	136.76
-36.171	119.96
-36.929	103.93
-37.744	89.441
-38.262	75.583
-38.351	59.824
-38.22	40.403
-38.154	17.68
-38.353	-6.5991
-38.921	-29.959
-39.833	-49.353
-40.738	-61.777
-40.835	-67.618
-39.773	-73.428
-38.286	-83.885
-37.067	-97.799
-36.313	-112.58
-35.935	-126.41
-35.74	-138.62
-35.554	-149.57
-35.31	-160.11
-35.035	-170.89
-34.764	177.8
-34.513	165.73
-34.321	152.5
-34.278	137.87
-34.502	122.1
-35.07	106.04
-35.958	91.007
-36.943	78.228
-37.627	67.252
-37.825	55.09
-37.867	39.182
-38.262	19.954
-39.397	0.31433
-41.409	-13.944
-43.209	-13.708
-41.903	-7.564
-39.031	-17.303
-36.92	-38.064
-35.967	-62.725
-36.187	-86.976
-37.532	-106.3
-39.338	-113.73
-39.185	-110.11
-36.84	-116.75
-34.803	-136.81
-33.846	-163.65
-34.034	166.13
-35.476	133.76
-38.617	99.265
-45.175	59.898
-57.507	-94.314
-44.067	-168.5
-40.08	154.31
-38.656	120.75
-38.677	90.589
-39.66	66.316
-40.85	51.702
-40.759	44.966
-39.13	34.037
-37.412	14.77
-36.411	-8.9832
-36.313	-33.544
-37.136	-55.917
-38.762	-72.227
-40.349	-77.413
-40.002	-76.255
-38.127	-84.639
-36.526	-103.5
-35.768	-128.11
-35.944	-155.79
-37.145	174.88
-39.602	144.9
-44.052	115.7
-54.144	97.278
-52.766	-152.42
-45.181	-175.19
-42.275	154.79
-41.176	125.1
-41.184	97.867
-41.959	75.144
-43.055	59.114
-43.728	49.271
-43.693	40.212
-43.636	28.796
-44.186	18.295
-45.06	15.564
-44.417	20.927
-41.945	18.233
-39.658	3.9868
-38.317	-15.753
-37.935	-36.766
-38.358	-56.131
-39.221	-71.364
-39.833	-82.232
-39.728	-93.407
-39.383	-109.53
-39.54	-130.03
-40.649	-151.23
-42.876	-166.61
-45.02	-164.44
-43.231	-155.32
-39.808	-166.72
-37.398	170.26
-36.14	143.8
-35.883	117.37
-36.547	93.143
-38.053	73.824
-39.976	63.345
-41.041	62.139
-40.601	59.87
-39.886	50.624
-39.733	37.907
-40.165	25.829
-40.8	16.376
-41.231	8.3407
-41.481	-0.87295
-41.826	-11.616
-42.258	-22.336
-42.351	-33.07
-41.816	-47.449
-40.936	-68.614
-40.088	-96.015
-39.459	-126.89
-39.171	-157.69
-39.307	175.23
-39.728	155.19
-39.788	143.42
-38.784	134.52
-37.231	120.98
-36.138	102.29
-36.021	81.612
-37.1	62.556
-39.486	50.899
-41.992	58.152
-40.688	73.053
-38.033	67.811
-36.653	52.153
-36.673	34.794
-37.921	21.367
-39.676	18.93
-39.617	26.666
-37.486	25.162
-35.495	11.454
-34.286	-8.4104
-33.808	-31.238
-33.948	-55.664
-34.621	-81.038
-35.798	-106.94
-37.548	-132.66
-40.083	-156.14
-43.656	-170.76
-46.57	-161.09
-44.073	-148.87
-40.614	-161.27
-38.418	176.83
-37.388	152.9
-37.364	130.2
-38.186	111.47
-39.461	99.763
-40.232	95.911
-39.743	92.968
-38.69	84.147
-37.905	70.42
-37.587	54.623
-37.627	38.336
-37.865	21.739
-38.24	4.2023
-38.816	-14.75
-39.704	-34.708
-40.941	-54.168
-42.349	-70.795
-43.395	-83.102
-43.529	-93.444
-42.934	-105.96
-42.246	-120.98
-41.806	-135.74
-41.463	-147.47
-40.739	-156.26
-39.448	-165.81
-37.996	-178.92
-36.845	164.83
-36.195	147.23
-36.017	129.96
-36.144	113.8
-36.431	98.315
-36.905	82.537
-37.791	66.341
-39.355	51.789
-41.5	44.224
-42.67	48.398
-41.183	49.612
-39.071	35.514
-37.788	11.547
-37.561	-17.318
-38.443	-48.586
-40.69	-80.765
-45.307	-111.71
-58.496	-116.22
-48.908	-20.132
-42.647	-47.56
-39.975	-78.088
-39.016	-107.33
-39.257	-133.2
-40.348	-152.83
-41.491	-163.11
-41.334	-167.67
-39.933	-177.68
-38.556	164.27
-37.793	141.54
-37.718	116.99
-38.267	92.436
-39.362	69.23
-40.941	48.958
-42.86	34.147
-44.545	28.065
-44.77	28.846
-43.338	26.09
-41.498	15.784
-39.989	1.0262
-38.945	-15.131
-38.284	-30.942
-37.869	-45.748
-37.591	-59.752
-37.447	-73.526
-37.535	-87.252
-37.949	-100.24
-38.652	-111.19
-39.397	-119.3
-39.877	-125.75
-40.123	-133.24
-40.549	-142.66
-41.488	-151.56
-42.675	-155.43
-42.876	-154.02
-41.6	-158.16
-40.163	-173.47
-39.41	163.02
-39.484	134.36
-40.304	102.57
-41.736	69.842
-43.65	40
-45.739	19.663
-46.611	13.726
-45.021	9.7003
-42.8	-2.762
-41.228	-18.859
-40.328	-33.545
-39.606	-44.79
-38.553	-54.808
-37.293	-67.649
-36.363	-84.304
-36.157	-103.06
-36.871	-121.12
-38.465	-134.07
-40.048	-136.51
-39.775	-134.02
-38.28	-141.46
-37.305	-158.32
-37.403	-178.93
-38.653	161.6
-40.776	149.63
-42.072	150.54
-40.691	149.62
-38.644	134.36
-37.349	110.61
-36.978	83.776
-37.491	57.2
-38.826	34.018
-40.687	18.436
-41.949	13.247
-41.413	9.7985
-40.11	-1.8122
-39.263	-19.607
-39.194	-39.349
-39.865	-57.837
-41.004	-72.392
-42.001	-81.914
-42.217	-89.808
-41.796	-101.67
-41.366	-119.19
-41.331	-141.14
-41.86	-165.79
-43.043	168.76
-44.96	145.31
-47.548	129.37
-49.485	129.2
-48.087	133.04
-45.395	121.35
-43.566	100.47
-42.943	77.55
-43.529	57.406
-45.014	46.218
-45.611	48.299
-43.809	46.969
-41.933	31.386
-41.412	7.7977
-42.726	-19.52
-47.169	-49.437
-72.407	-128.05
-46.94	74.522
-41.479	43.016
-39.366	13.905
-39.015	-11.698
-39.743	-31.128
-40.49	-41.828
-39.875	-49.913
-38.398	-66.587
-37.35	-92.329
-37.226	-123.59
-38.209	-157.92
-40.668	166.64
-45.791	134.06
-58.09	160.78
-46.616	-154.53
-41.32	172.56
-39.007	134.82
-38.377	96.088
-39.141	57.016
-41.428	17.408
-45.992	-23.67
-56.635	-71.865
-57.086	85.832
-50.566	33.994
-49.566	-19.145
-50.216	-82.739
-50.092	-155.82
-48.863	135.22
-48.037	72.6
-47.937	11.259
-48.159	-49.222
-48.992	-104.67
-52.414	-152.02
-71.82	-95.03
-48.283	-66.482
-41.594	-103.14
-38.127	-139.41
-36.508	-174.27
-36.375	152.67
-37.77	122.25
-41.175	98.068
-46.929	99.755
-45.768	133.31
-42.105	121.05
-41.443	92.701
-43.843	56.827
-51.915	-6.357
-47.328	-148.32
-40.561	162.3
-37.78	122.79
-37.074	84.001
-37.938	42.876
-40.209	-5.0071
-43.075	-68.005
-43.571	-143.18
-42.196	154.23
-41.757	102.23
-42.757	50.812
-44.617	-7.7132
-45.643	-73.638
-45.507	-132.48
-46.527	-179.24
-51.703	142.84
-59.916	-91.714
-45.647	-115.31
-40.927	-146.33
-38.955	-175.87
-38.774	157.55
-40.138	137
-42.478	130.1
-42.914	139.26
-40.64	137.93
-38.864	122.02
-38.448	100.99
-39.334	81.094
-41.046	68.467
-41.923	65.983
-40.68	60.213
-38.969	41.591
-37.967	14.619
-37.87	-15.813
-38.682	-46.153
-40.422	-72.573
-42.882	-88.642
-44.249	-88.474
-42.692	-89.879
-40.843	-105.18
-40.261	-126.41
-41.225	-146.18
-43.6	-155.21
-44.777	-142.85
-41.985	-137.08
-39.315	-150.81
-38.064	-171.72
-38.064	166.62
-38.95	147.83
-40.09	133.81
-40.702	121.93
-40.8	105.65
-41.196	82.496
-42.548	54.886
-45.349	27.885
-50.085	16.982
-49.94	45.992
-43.996	36.82
-40.082	7.4848
-37.852	-25.461
-36.981	-58.279
-37.459	-89.424
-39.61	-116.58
-44.149	-130.61
-47.656	-99.702
-43.065	-86.516
-40.404	-102.45
-40.087	-121.29
-41.413	-132.23
-42.185	-126.71
-39.862	-123.83
-37.23	-138.71
-35.852	-163.17
-35.842	168.34
-37.176	138.6
-39.926	109.89
-44.336	86.974
-49.615	85.645
-49.348	98.029
-46.841	78.372
-45.678	46.142
-45.712	14.944
-46.673	-5.9377
-46.81	-8.9455
-43.941	-12.121
-40.727	-30.642
-38.767	-57.466
-38.254	-88.015
-39.398	-120.95
-42.974	-156.86
-52.588	151.15
-50.239	-13.304
-43.468	-57.873
-41.506	-93.298
-42.098	-127.4
-45.225	-161.48
-52.724	161.75
-64.636	-10.22
-54.139	-63.029
-55.672	-85.249
-59.493	-22.325
-49.063	-13.71
-44.571	-39.698
-43.163	-70.469
-44.383	-104.74
-49.607	-150.75
-53.119	78.528
-44.297	14.536
-40.579	-20.414
-39.429	-49.296
-40.215	-72.675
-42.772	-84.62
-44.97	-71.402
-42.42	-57.458
-39.438	-66.301
-37.905	-83.579
-37.585	-101.94
-38.057	-118.25
-38.823	-131.83
-39.525	-144.81
-40.296	-160.5
-41.688	179.68
-44.41	156.74
-49.717	134.26
-62.273	154.93
-53.009	-140.76
-47.846	-169.63
-45.398	153.14
-43.885	114.06
-42.809	76.867
-42.147	43.974
-41.966	16.37
-42.245	-5.7016
-42.857	-22.417
-43.661	-34.299
-44.571	-41.449
-45.323	-42.804
-45.16	-39.525
-43.8	-39.155
-42.197	-46.332
-41.174	-58.794
-40.974	-72.608
-41.451	-84.166
-42.061	-91.354
-42.134	-96.637
-41.801	-105.57
-41.879	-119.58
-43.065	-135.47
-45.799	-145.74
-48.724	-133.51
-46.414	-116.24
-43.093	-127.37
-41.388	-150.91
-41.172	-178.58
-42.301	153.35
-44.736	129.26
-47.811	118.64
-47.891	121.55
-44.997	106.22
-42.534	74.019
-40.973	34.677
-40.19	-7.6982
-40.133	-51.62
-40.848	-97.16
-42.439	-146.06
-44.856	157.07
-46.778	85.852
-45.875	13.074
-44.017	-43.162
-43.09	-87.022
-43.393	-122.52
-44.87	-148.8
-46.833	-160.69
-47.027	-160.24
-45.338	-166.75
-44.037	177.9
-43.691	161.9
-43.691	150.77
-42.931	142.47
-41.428	128.46
-40.226	105.73
-40.015	75.644
-41.171	38.153
-43.816	-12.183
-45.579	-87.305
-42.671	-158.32
-39.626	153.66
-38.025	115.45
-37.74	82.002
-38.574	52.539
-40.34	27.861
-42.701	9.3966
-45.045	-3.1336
-47.106	-14.499
-49.84	-27.345
-54.645	-28.612
-55.115	10.427
-49.342	6.2711
-45.746	-23.366
-43.626	-60.258
-42.386	-99.204
-41.832	-137.04
-42.003	-170.92
-42.901	162.85
-43.822	148.96
-43.017	142.94
-40.759	129.41
-38.792	106.29
-37.784	77.879
-37.897	47.176
-39.237	16.352
-42.013	-11.933
-46.571	-30.639
-50.849	-19.324
-48.643	-11.346
-46.585	-35.672
-46.554	-72.768
-48.43	-118.54
-52.426	179.93
-54.946	77.574
-50.026	-9.7353
-46.096	-68.064
-43.797	-118.66
-42.712	-167.1
-42.688	143.77
-43.588	90.606
-44.746	29.205
-44.587	-37.847
-43.06	-97.072
-41.819	-145
-41.734	175
-43.236	142.11
-46.911	122.77
-50.154	145.14
-45.111	158.78
-41.089	139.73
-39.014	113.38
-38.288	86.001
-38.583	59.812
-39.692	36.29
-41.392	16.932
-43.288	2.9351
-44.832	-6.7641
-45.83	-16.032
-46.606	-27.109
-47.33	-39.5
-47.836	-53.853
-48.117	-73.546
-48.547	-102.1
-49.394	-142
-50.17	164.94
-49.675	103.77
-48.143	45.825
-46.822	-7.1066
-46.212	-59.288
-46.125	-114.6
-45.893	-174.17
-44.96	126.28
-43.721	71.947
-42.925	23.249
-43.036	-21.769
-44.396	-65.209
-47.594	-110.16
-54.194	-169.77
-56.306	62.585
-50.134	-2.639
-48.093	-42.045
-48.858	-71.15
-51.931	-79.65
-51.256	-55.267
-46.256	-59.854
-43.118	-83.189
-41.785	-110.67
-41.968	-137.65
-43.653	-159.91
-46.456	-167.91
-46.849	-157.02
-44.094	-161.43
-42.205	177.33
-41.908	149.61
-43.377	119.2
-47.544	87.612
-61.504	58.169
-52.038	-158.69
-45.89	171.06
-43.837	142.79
-43.683	119.23
-44.383	104.55
-44.184	98.492
-42.405	87.739
-40.577	66.209
-39.608	37.626
-39.744	5.25
-41.223	-29.064
-44.75	-63.999
-54.016	-96.07
-53	35.833
-44.043	3.3396
-40.373	-31.268
-38.665	-64.82
-38.214	-96.107
-38.736	-123.72
-40.012	-145.54
-41.516	-158.97
-42.249	-165.41
-41.978	-172.77
-41.638	175.76
-41.771	163.57
-42.153	154.19
-42.197	147.03
-41.898	137.43
-42.055	123.76
-43.513	110.25
-46.615	110.16
-46.541	138.62
-41.736	141.45
-38.396	122.28
-36.795	96.18
-36.724	67.467
-38.338	38.211
-42.523	11.809
-52.95	20.892
-45.758	89.791
-40.06	66.214
-37.781	33.85
-37.31	-1.7427
-38.193	-40.214
-40.202	-82.799
-42.926	-132.26
-45.322	170.45
-46.649	114.11
-48.215	68.152
-51.949	36.267
-59.024	49.398
-53.541	91.014
-48.437	74.606
-45.928	49.338
-44.806	21.37
-44.58	-9.5479
-44.943	-45.789
-45.348	-90.817
-44.7	-144.07
-42.667	163.88
-40.426	118.54
-38.836	78.144
-38.167	40.25
-38.551	3.0922
-40.265	-35.078
-44.044	-78.007
-51.276	-149.19
-48.493	92.784
-43.123	39.937
-40.784	0.80571
-40.282	-35.343
-41.313	-71.078
-44.086	-109.17
-49.454	-161.01
-51.822	93.351
-45.533	26.816
-41.783	-12.113
-39.783	-45.233
-38.888	-76.447
-38.834	-107.14
-39.545	-138.18
-41.049	-170.29
-43.357	155.34
-46.28	115.87
-48.723	66.811
-48.58	13.738
-46.376	-29.323
-43.969	-64.343
-42.084	-97.093
-40.958	-130.26
-40.726	-164.93
-41.549	158.01
-43.71	116.52
-47.599	63.409
-50.893	-21.076
-47.954	-100.4
-45.411	-149.55
-44.926	174.14
-46.163	149.94
-47.405	146.8
-44.778	148.51
-41.083	129.51
-38.573	99.392
-37.257	64.861
-36.969	28.111
-37.668	-10.196
-39.436	-49.745
-42.471	-89.976
-47.178	-128.96
-54.422	-154.21
-56.272	-126.9
-49.81	-150.23
-45.476	166.53
-42.703	123.33
-41.238	83.371
-41.026	47.218
-42.166	16.164
-44.752	-4.2222
-46.911	-2.1176
-44.879	0.15851
-42.513	-19.387
-41.79	-49.209
-42.937	-84.305
-46.709	-125.95
-55.663	156.8
-50.229	26.084
-44.874	-23.982
-42.941	-64.669
-42.952	-103.6
-44.587	-141.92
-47.918	-178.61
-53.23	153.11
-57.685	156.25
-54.44	149.21
-50.983	111.87
-48.849	68.919
-48.163	27.01
-49.457	-12.328
-54.567	-45.533
-63.943	38.456
-50.494	36.893
-45.884	4.4969
-44.042	-29.041
-43.999	-61.217
-45.564	-88.981
-48.374	-104.35
-49.431	-101.05
-47.023	-108.9
-44.857	-135.43
-43.807	-170.31
-43.689	151.57
-44.351	113.5
-45.738	79.446
-47.555	55.425
-48.249	44.632
-46.718	32.325
-45	8.911
-44.515	-20.971
-45.992	-52.86
-51.356	-80.14
-58.263	5.4548
-46.097	0.21519
-41.423	-32.887
-39.33	-68.992
-38.969	-106.55
-40.323	-145.88
-44.099	169.82
-52.291	90.442
-46.888	-34.31
-41.204	-84.915
-38.659	-125.17
-37.87	-162.92
-38.427	160.22
-40.261	123.12
-43.548	83.245
-48.503	31.387
-51.407	-51.485
-48.203	-116.65
-45.664	-155.47
-44.551	173.92
-44.66	146.49
-46.093	121.82
-49.197	104.06
-53.231	109.37
-51.949	127.86
-49.183	113.3
-48.753	80.659
-50.88	31.204
-52.615	-55.408
-47.696	-134.9
-43.578	174.57
-41.379	132.23
-40.63	92.568
-41.125	54.429
-42.836	18.733
-45.804	-10.11
-48.97	-20.919
-48.261	-21.167
-45.524	-41.402
-43.834	-73.946
-43.658	-110.43
-45.425	-147.08
-50.815	-178.11
-59.303	-105.87
-47.146	-105.89
-42.628	-142.96
-40.765	174.41
-40.403	127.16
-40.769	74.662
-41.046	19.019
-41.03	-33.074
-41.543	-75.983
-43.423	-104.45
-45.345	-104.51
-42.116	-97.986
-38.181	-117.02
-35.98	-146.51
-35.417	-179.29
-36.46	147.1
-39.497	114.24
-46.352	87.836
-53.965	165.32
-44.261	159.32
-41.525	121.15
-41.436	74.675
-42.574	18.346
-43.263	-46.727
-43.045	-108.84
-43.616	-163.37
-46.712	142.29
-53.875	49.594
-47.432	-69.236
-42.2	-122.58
-40.124	-166.79
-40.032	149.99
-41.586	104.09
-44.551	50.177
-47.58	-18.045
-48.644	-87.61
-50.231	-141.02
-56.814	-177.41
-59.291	-74.813
-49.688	-98.632
-47.072	-134.03
-48.068	-171.97
-54.287	139.11
-55.696	-18.883
-46.663	-73.306
-43.462	-109.39
-43.022	-140.2
-44.84	-163.38
-48.279	-165.2
-47.189	-145.01
-43.36	-155.71
-41.441	176.1
-41.294	140.73
-42.506	99.105
-44.505	48.695
-46.074	-9.8372
-46.827	-64.832
-48.444	-107.68
-53.03	-132.93
-57.997	-86.209
-49.747	-72.034
-45.585	-94.636
-44.01	-121.79
-44.263	-149.57
-46.315	-177.72
-51.172	150.22
-62.555	56.258
-51.281	-48.344
-45.928	-80.784
-43.513	-107.91
-42.802	-133.05
-43.555	-155.32
-45.759	-169.72
-47.903	-164.75
-46.006	-156.31
-43.048	-170.78
-41.333	161.67
-40.891	127.37
-41.576	88.322
-43.295	44.933
-46.096	-3.815
-50.366	-63.946
-54.147	-160.82
-49.524	106.05
-45.2	49.318
-42.81	3.2674
-41.907	-39.382
-42.28	-82.11
-43.829	-129.17
-45.844	172.62
-45.885	105.22
-43.952	49.74
-42.526	8.3485
-42.446	-24.703
-44.032	-49.988
-47.43	-58.64
-48.38	-35.178
-44.138	-31.678
-41.189	-51.598
-40.172	-79.96
-41.106	-113.94
-44.633	-158.42
-49.578	111.35
-43.716	21.222
-39.299	-24.891
-37.373	-62.573
-37.237	-98.261
-38.874	-134.1
-43.087	-172.66
-54.087	123.91
-48.876	-32.238
-43.341	-77.488
-42.024	-116.16
-43.138	-156.36
-46.504	154.81
-50.306	79.765
-48.584	4.429
-46.581	-36.763
-46.095	-58.593
-45.537	-67.785
-43.942	-77.643
-42.645	-96.333
-42.881	-120.88
-45.707	-146.9
-56.086	-157.51
-48.944	-48.753
-41.373	-74.384
-38.064	-105.78
-36.772	-138.24
-36.977	-170.84
-38.667	156.87
-42.317	125.87
-49.861	101.2
-59.419	-167.2
-49.485	-165.79
-47.705	170.73
-49.366	151.74
-53.316	155.55
-52.485	-175.46
-49.31	-177
-48.489	171.92
-49.206	169.79
-48.33	-179.6
-45.284	178.83
-43.131	162.84
-42.761	141.74
-44.582	121.97
-49.763	118.94
-49.931	176.66
-42.939	178.24
-39.341	158.42
-37.785	135.63
-37.646	113.95
-38.591	95.906
-40.23	84.061
-41.825	79.453
-42.743	77.611
-43.518	73.46
-45.01	70.21
-46.756	77.071
-46.268	90.478
-44.335	89.747
-43.498	76.625
-44.771	58.499
-50.091	43.368
-56.678	143.36
-44.468	146.75
-39.793	123.76
-37.704	97.923
-37.346	71.173
-38.685	44.262
-42.42	18.244
-52.743	0.85362
-49.903	128.8
-42.586	107.99
-40.348	83.487
-40.604	61.132
-42.957	46.856
-46.118	55.204
-44.866	75.333
-42.259	71.383
-41.473	57.775
-42.478	47.605
-43.795	52.302
-42.183	61.633
-39.52	53.084
-38.136	33.013
-38.443	8.5977
-40.836	-15.673
-46.78	-29.137
-50.631	34.746
-42.745	38.615
-39.367	13.391
-38.361	-16.263
-39.046	-46.474
-41.342	-74.441
-45.429	-92.774
-48.837	-81.617
-45.841	-76.977
-42.865	-101.91
-41.267	-136.56
-40.598	-174.31
-40.649	147.09
-41.439	108.66
-43.119	70.859
-45.934	33.392
-50.316	-6.6085
-56.606	-64.465
-57.122	-156.04
-52.581	155.25
-49.468	126.51
-47.267	101.94
-45.689	77.19
-44.665	50.785
-44.167	22.019
-44.12	-9.8301
-44.371	-45.793
-44.608	-86.634
-44.418	-131.13
-43.698	-175.37
-42.875	144.19
-42.498	108.96
-42.899	80.397
-43.938	62.431
-44.118	58.004
-41.986	52.937
-39.349	35.829
-37.557	11.01
-36.901	-17.117
-37.523	-45.76
-39.708	-71.582
-43.902	-85.704
-47.117	-63.212
-43.187	-52.959
-40.319	-72.963
-39.548	-101.1
-40.558	-130.86
-43.318	-158.22
-47.617	-175.06
-50.029	-174.44
-48.15	164.28
-45.325	114.92
-41.764	60.363
-38.458	11.426
-36.125	-33.138
-34.888	-76.07
-34.727	-119.28
-35.543	-164.43
-37.139	146.44
-39.015	91.603
-40.436	33.318
-41.407	-21.638
-42.802	-70.001
-45.346	-113.07
-49.311	-153.23
-53.681	165.33
-53.913	118.93
-49.314	77.62
-44.761	40.473
-41.779	3.5776
-40.457	-34.556
-40.83	-75.824
-43.035	-125.61
-45.66	161.44
-43.512	81.882
-40.439	29.451
-39.22	-9.4301
-39.933	-40.568
-42.644	-60.95
-46.165	-56.09
-44.985	-38.817
-42.715	-46.049
-42.49	-60.449
-43.833	-66.612
-43.838	-58.493
-41.268	-61.768
-39.429	-83.047
-39.445	-114.64
-41.67	-156.28
-45.766	137.39
-44.671	45.652
-41.074	-12.556
-39.97	-56.292
-41.71	-98.585
-48.126	-156.91
-47.275	64.761
-39.775	10.091
-36.572	-26.237
-35.592	-57.522
-36.263	-84.262
-38.342	-103.43
-40.97	-108.65
-41.736	-103.44
-41.063	-107.5
-41.374	-119
-43.067	-125.43
-43.963	-116.94
-41.794	-114.36
-39.613	-130.46
-38.828	-156.71
-39.544	171.3
-41.784	133.99
-45.408	87.986
-48.819	28.1
-49.447	-27.662
-49.009	-57.44
-47.615	-68.558
-45.03	-81.042
-42.975	-101.73
-42.292	-126.3
-43.238	-150.26
-46.094	-166.82
-49.703	-157.18
-47.522	-137.54
-44.443	-148.39
-43.494	-169.15
-44.571	171.73
-47.18	166.69
-47.221	-177.03
-43.811	-179.06
-41.535	160.96
-40.997	135.42
-42.201	110.06
-45.347	92.129
-49.042	100.52
-46.84	116.02
-43.735	100.06
-42.381	71.315
-42.446	37.084
-43.562	-0.52298
-45.269	-39.642
-46.908	-76.146
-47.738	-104.42
-47.196	-124.82
-45.776	-144.74
-44.72	-166.85
-44.811	172.3
-46.113	160.11
-46.689	164.7
-44.118	166.17
-41.368	149.35
-40.08	122.37
-40.537	89.708
-43.172	50.718
-49.132	-9.3952
-49.28	-126.26
-43.671	172.09
-41.478	129.36
-41.67	89.188
-44.122	46.423
-49.472	-9.7223
-53.744	-113.22
-50.792	166.1
-51.932	105.89
-54.974	-4.8748
-46.263	-92.021
-40.939	-137.16
-38.264	-175.06
-37.419	149.34
-38.17	114.64
-40.669	79.29
-45.662	37.932
-52.926	-43.267
-48.929	-131.14
-45.672	-162.3
-44.034	-175.84
-42.192	176.02
-40.178	163.75
-38.808	145.92
-38.524	125.09
-39.502	104.17
-41.843	86.325
-45.629	76.174
-50.599	83.228
-53.704	120.47
-50.481	156.63
-45.529	163.31
-41.662	152.73
-39.14	134.05
-37.807	111.35
-37.534	86.383
-38.28	59.984
-40.075	32.62
-42.982	4.4379
-46.986	-25.302
-51.502	-59.827
-54.021	-102.19
-52.529	-140.51
-49.706	-170.87
-47.637	159.86
-46.975	128.5
-48.058	92.418
-51.306	42.29
-53.008	-46.413
-47.994	-118.24
-44.455	-163.47
-43.041	157.27
-43.507	117.64
-46.077	70.731
-49.836	-6.5856
-46.227	-97.898
-41.652	-151.59
-39.21	166.21
-38.391	126.96
-38.952	87.967
-40.997	47.019
-45.19	-0.678
-52.247	-82.836
-48.674	162.69
-43.86	105.29
-41.532	59.763
-40.606	17.822
-40.737	-21.137
-41.912	-55.087
-44.035	-78.159
-45.247	-82.2
-42.83	-86.838
-39.706	-109.71
-37.52	-142.78
-36.242	178.83
-35.63	136.76
-35.434	91.836
-35.472	45.199
-35.685	-1.659
-36.22	-47.716
-37.33	-93.091
-39.281	-139.27
-42.211	170.23
-45.491	109.29
-46.94	41.699
-47.06	-11.666
-48.559	-45.364
-51.667	-46.97
-48.811	-25.314
-44.18	-37.58
-41.749	-61.806
-41.102	-88.018
-42.038	-112.89
-44.692	-132.14
-48.706	-133.72
-49.404	-114.61
-47.429	-118.32
-47.64	-137.98
-51.735	-159.29
-63.448	-96.572
-49.755	-66.108
-45.063	-93.554
-43.666	-125.72
-44.773	-160.61
-49.599	160.18
-64.926	9.2095
-47.612	-79.605
-42.494	-121.75
-40.007	-163.78
-38.781	152.42
-38.35	107.14
-38.593	61.843
-39.639	18.342
-41.94	-21.874
-46.84	-55.585
-58.366	-26.286
-47.292	15.696
-42.346	-14.849
-40.59	-50.475
-40.83	-88.3
-42.999	-130.1
-47.558	174.72
-50.591	77.738
-46.214	2.0054
-43.562	-44.466
-42.919	-83.295
-43.677	-118.68
-45.3	-150.88
-46.844	-179.54
-46.988	152.44
-45.467	119.68
-43.35	82.125
-41.614	42.315
-40.7	0.99718
-40.712	-43.335
-41.448	-94.343
-41.923	-155.15
-40.872	142.27
-39.199	89.811
-38.24	47.403
-38.435	12.334
-39.969	-14.946
-42.595	-27.543
-43.201	-20.03
-40.409	-24.56
-38.15	-46.543
-37.221	-75.588
-37.499	-107.76
-38.961	-141.68
-41.788	-176.21
-46.498	151.39
-54.247	134.7
-57.624	172.06
-54.382	157.34
-55.49	112.88
-60.508	20.618
-52.754	-90.358
-46.275	-143.37
-42.626	173.58
-40.768	134.1
-40.379	97.423
-41.434	64.431
-44.101	39.097
-47.578	35.029
-46.305	44.827
-42.863	25.123
-40.726	-11.65
-39.515	-56.144
-38.628	-103.84
-37.869	-150.66
-37.5	165.96
-37.941	126.85
-39.605	92.962
-42.886	68.426
-47.034	66.415
-46.944	78.695
-45.458	63.842
-46.843	29.424
-52.199	-44.649
-46.454	-154.13
-40.262	157.95
-37.034	121.45
-35.56	87.753
-35.456	55.04
-36.686	22.932
-39.44	-8.329
-44.342	-38.086
-54.132	-61.911
-59.92	54.13
-52.969	29.875
-53.094	-21.321
-51.309	-102.55
-45.382	-160.89
-40.891	160.53
-38.018	127.29
-36.45	95.229
-36.083	62.736
-37.008	28.339
-39.595	-11.379
-44.243	-70.069
-44.668	-165.64
-40.127	133.33
-37.682	93.917
-37.11	61.717
-38.1	34.718
-40.567	15.574
-43.853	12.152
-45.037	24.562
-44.003	28.824
-43.25	27.203
-42.093	27.682
-39.737	22.821
-37.336	7.0252
-35.797	-16.474
-35.398	-43.965
-36.292	-72.605
-38.75	-98.951
-43.239	-113.99
-46.778	-92.067
-43.103	-82.737
-40.67	-103.57
-40.674	-131.44
-43.389	-157.58
-50.726	-155.77
-46.287	-96.785
-39.99	-115.69
-37.268	-146.41
-36.676	-178.98
-38.014	149.08
-42.118	121.59
-51.959	140.33
-43.67	-167.18
-38.521	168.16
-36.652	136.98
-36.772	104.92
-38.828	73.786
-43.784	48.444
-52.962	75.876
-46.172	113.85
-42.88	91.196
-43.307	63.031
-48.051	40.455
-54.158	116.19
-42.896	119.2
-38.248	90.139
-36.081	57.981
-35.386	25.115
-35.829	-8.137
-37.326	-42.259
-39.945	-79.166
-43.737	-125.34
-46.647	164.7
-44.227	94.998
-40.97	48.866
-38.873	11.665
-37.9	-23.172
-37.986	-57.613
-39.168	-92.225
-41.615	-127
-45.779	-160.47
-52.564	179.12
-54.459	-154.13
-48.389	-177.66
-43.882	137.18
-40.496	92.398
-38.197	51.136
-37.047	12.993
-37.154	-22.245
-38.76	-53.276
-42.352	-73.833
-46.343	-59.579
-42.525	-42.04
-38.625	-60.325
-36.675	-88.851
-36.132	-120.28
-36.666	-152.38
-38.098	175.92
-40.349	145.75
-43.408	119.6
-47.053	103.82
-49.239	107.29
-47.149	110.5
-43.777	96.332
-40.883	72.992
-38.662	45.34
-37.185	15.049
-36.537	-17.069
-36.838	-50.59
-38.258	-85.545
-41.136	-123.18
-46.251	-169.59
-52.555	103
-48.976	14.857
-46.502	-26.71
-46.392	-50.877
-46.52	-59.631
-44.629	-66.3
-42.057	-86.346
-40.317	-116.72
-39.626	-152.77
-39.895	167.77
-41.12	125.89
-43.544	81.647
-48.133	32.196
-57.094	-58.104
-50.507	179.12
-45.263	130.85
-43.051	94.238
-42.571	63.587
-43.346	39.31
-44.906	23.384
-46.495	16.322
-47.645	14.754
-48.471	18.728
-47.711	29.213
-44.953	30.186
-42.523	17.122
-41.491	-2.6858
-42.178	-22.753
-44.779	-32.627
-46.04	-13.677
-41.773	-8.1864
-38.271	-29.096
-36.532	-59.754
-36.318	-95.554
-37.593	-136.17
-40.456	174.96
-44.163	105.88
-43.953	19.923
-41.395	-44.015
-40.257	-94.659
-40.806	-141.97
-43.096	169.42
-47.652	112.79
-53.979	19.656
-51.056	-90.987
-47.544	-158.99
-45.879	141.03
-44.904	82.387
-44.217	26.338
-44.152	-25.158
-45.456	-71.082
-49.594	-107.71
-58.766	-75.476
-47.882	-45.78
-42.395	-75.403
-39.806	-108.59
-39.019	-140.76
-39.817	-169.26
-42.231	171.49
-44.985	175.05
-43.185	-171.29
-39.915	178.75
-38.057	157.77
-37.556	134.51
-38.13	112.45
-39.543	93.248
-41.677	77.513
-44.81	66.048
-50.053	69.275
-50.974	124.23
-44.125	131.72
-40.007	112.3
-37.758	85.182
-36.886	53.426
-37.264	17.405
-38.773	-23.975
-40.939	-73.852
-42.312	-132.75
-42.046	171.65
-41.704	127.87
-42.542	94.472
-45.082	73.06
-48.614	78.083
-46.733	102.32
-42.561	97.504
-39.853	79.904
-38.327	59.043
-37.646	37.38
-37.692	15.654
-38.53	-5.1383
-40.258	-22.13
-42.476	-29.59
-43.299	-25.949
-41.808	-28.18
-40.1	-44.118
-39.301	-68.864
-39.668	-98.658
-41.281	-131.76
-44.244	-168.37
-48.833	148.51
-55.449	90.349
-63.947	-4.0935
-61.059	-161.6
-51.599	129.73
-45.971	87.54
-42.448	53.796
-40.332	24.634
-39.276	-0.61846
-39.004	-21.486
-39.171	-37.362
-39.342	-48.538
-39.129	-57.217
-38.505	-66.947
-37.828	-79.886
-37.478	-95.894
-37.674	-113.96
-38.574	-133.15
-40.386	-152.3
-43.428	-168.88
-47.955	-175.65
-51.878	-158.4
-51.263	-144.48
-51.043	-155.01
-53.561	-177.42
-60.399	139.78
-60.259	30.023
-53.295	-3.6807
-48.816	-17.045
-45.074	-30.448
-42.114	-48.468
-40.178	-70.434
-39.37	-94.708
-39.774	-119.74
-41.556	-143.73
-45.086	-162.94
-50.595	-163.59
-51.907	-132.14
-48.971	-135.02
-48.229	-160.96
-49.179	159.92
-49.583	106.83
-47.19	56.436
-43.83	20.962
-40.857	-6.8489
-38.546	-32.843
-37.025	-59.19
-36.395	-86.333
-36.795	-114.09
-38.519	-141.65
-42.252	-165.73
-49.291	-166.2
-48.032	-117.65
-42.933	-132.13
-40.837	-164.87
-40.399	155.67
-40.852	112.01
-41.699	67.087
-42.888	25.587
-44.864	-6.9452
-47.677	-20.904
-47.946	-12.758
-45.247	-18.611
-43.872	-39.219
-44.877	-62.708
-49.499	-76.361
-52.826	-19.777
-44.852	-13.119
-41.306	-37.637
-40.634	-67.039
-42.797	-97.415
-51.135	-122.9
-49.964	3.4613
-41.108	-24.043
-37.939	-57.613
-37.317	-93.758
-38.924	-134.28
-43.228	170.61
-45.342	69.467
-39.93	-2.6724
-36.75	-47.848
-35.727	-87.878
-36.536	-127.86
-39.28	-171.64
-43.983	128.99
-45.567	39.726
-42.663	-22.884
-41.852	-62.002
-43.886	-86.661
-47.645	-76.507
-43.836	-51.925
-39.474	-65.868
-37.46	-90.54
-37.39	-117.2
-39.356	-140.96
-43.715	-148.87
-44.842	-117.97
-40.236	-118.74
-37.804	-143.92
-37.59	-177.52
-39.554	140.53
-43.594	74.847
-42.101	-22.624
-37.116	-82.94
-34.261	-126.65
-33.134	-165.99
-33.428	155.98
-35.188	117.96
-38.96	78.589
-47.125	32.452
-53.381	-145.13
-44.15	155.85
-41.996	110.41
-42.521	61.022
-44.598	-0.53893
-45.559	-80.016
-43.592	-154.81
-41.572	143.34
-40.31	84.673
-39.32	25.254
-38.178	-32.68
-37.105	-85.921
-36.547	-134.38
-36.816	179.95
-38.155	134.49
-40.848	85.641
-44.962	25.463
-47.981	-56.52
-47.305	-131.18
-47.547	173.62
-51.109	122.39
-61.921	25.045
-52.427	-110.65
-47.446	-166.9
-45.461	134.21
-43.458	67.649
-40.228	6.3278
-37.181	-43.133
-35.178	-84.717
-34.393	-121.78
-34.974	-155.58
-37.354	174.83
-42.821	158.48
-46.661	-150.31
-39.463	-143.4
-36.085	-167.18
-35.158	164.66
-36.191	136.48
-39.606	111.94
-47.294	112
-45.068	175.29
-39.316	162.34
-37.237	135.36
-37.33	105.15
-39.425	72.894
-44.497	36.298
-57.439	-52.365
-47.212	-177.55
-42.705	143.99
-41.498	110.57
-42.168	77.671
-44.374	43.078
-47.942	2.2812
-51.532	-53.943
-51.656	-114.89
-50.261	-154.97
-49.847	-179.02
-50.296	170.67
-49.737	173.09
-47.049	170.52
-44.291	153.76
-42.595	127.59
-42.121	95.509
-42.823	58.458
-44.566	15.472
-46.97	-35.436
-49.394	-92.967
-52.409	-149.43
-61.689	157.1
-55.872	-58.463
-46.853	-101.81
-42.762	-141.85
-40.892	179.47
-40.726	141.82
-42.34	105.53
-46.706	73.026
-58.498	83.857
-49.048	147.3
-43.774	118.19
-42.091	83.888
-42.77	49.922
-46.417	21.592
-54.261	44.956
-45.996	79.958
-40.812	52.889
-38.564	18.578
-38.161	-18.008
-39.498	-56.799
-43.213	-100.58
-51.364	-172
-48.716	56.9
-43.637	1.7984
-42.384	-40.821
-43.748	-81.599
-48.182	-123.79
-60.277	179.69
-57.747	-14.372
-53.501	-82.252
-50.709	-169.65
-45.034	119.97
-40.913	69.719
-38.855	25.981
-38.702	-16.859
-40.691	-64.003
-45.073	-132.34
-44.17	124.16
-39.377	60.976
-37.072	15.722
-36.838	-25.993
-38.506	-70.101
-41.98	-127.01
-43.466	150.02
-40.37	85.413
-38.255	45.774
-37.688	17.794
-38.121	-1.7732
-38.885	-14.131
-39.482	-22.727
-40.138	-30.848
-41.208	-36.303
-41.979	-35.141
-41.24	-34.726
-40.069	-46.334
-40.097	-69.263
-42.301	-101.71
-47.987	-155.38
-48.621	89.941
-42.735	29.405
-40.594	-11.827
-41.389	-52.302
-45.73	-103.42
-49.45	143.98
-42.312	67.869
-38.806	25.271
-37.96	-12.126
-39.405	-49.144
-43.915	-90.726
-53.378	177.56
-45.796	69.267
-41.593	29.667
-40.528	-0.38851
-41.204	-24.586
-42.617	-43.155
-43.662	-62.152
-44.001	-93.985
-43.037	-143.31
-40.141	164.34
-37.07	120.31
-35.081	82.302
-34.484	47.52
-35.466	14.906
-38.598	-15.392
-46.508	-38.536
-50.46	76.909
-41.129	61.622
-38.561	35.429
-38.877	10.087
-41.869	-9.1234
-47.784	0.58283
-45.539	45.598
-40.978	39.545
-39.2	19.395
-39.521	-4.5969
-42.094	-30.866
-48.745	-64.661
-54.106	152.69
-43.659	103.61
-39.246	78.062
-36.97	54.056
-36.18	29.38
-36.894	3.8823
-39.676	-22.233
-47.459	-48.849
-49.927	103.02
-39.516	75.064
-35.657	46.493
-34.022	17.733
-33.781	-11.165
-34.703	-40.163
-36.789	-68.622
-40.109	-94.201
-44.374	-110.02
-46.706	-108.04
-44.438	-115.57
-41.347	-142.17
-38.887	-174.45
-37.234	153.99
-36.387	124.92
-36.355	98.347
-37.291	74.33
-39.546	55.065
-43.327	50.123
-44.922	74.338
-41.403	82.935
-38.605	68.79
-37.306	46.345
-37.34	20.006
-38.665	-8.5594
-41.33	-38.582
-45.476	-69.602
-51.192	-98.355
-56.119	-106.95
-52.91	-111.9
-47.898	-140.39
-44.609	-172.43
-43.26	157.19
-44.09	130.79
-47.972	117.8
-50.571	161.05
-43.589	172.13
-39.584	151.56
-37.977	124.79
-38.305	96.128
-40.793	66.95
-47.125	37.505
-62.839	-160.11
-46.213	165.37
-42.918	140.25
-42.78	120.58
-44.228	112.17
-44.764	116.23
-43.56	112.17
-43.342	92.732
-45.877	60.111
-52.336	-16.686
-45.831	-121.16
-40.405	-163.33
-38.203	164.73
-38.213	137.29
-40.439	116.81
-44.824	120.26
-43.336	153.55
-38.884	147.07
-36.866	124.51
-36.878	97.697
-38.93	68.765
-44.32	35.944
-59.422	-88.285
-44.06	178.49
-39.438	146.79
-37.593	118.16
-37.126	89.652
-37.556	59.063
-38.602	23.291
-39.711	-21.448
-39.726	-74.391
-38.346	-125.74
-36.816	-170.73
-35.992	147.77
-36.147	106.23
-37.268	61.251
-38.986	8.8016
-40.104	-51.884
-39.871	-110.55
-39.536	-159.77
-40.228	157.84
-42.539	118.31
-47.404	76.719
-57.032	2.231
-52.983	-114.48
-48.849	-150.12
-47.076	-167.8
-45.016	179.61
-42.386	160.15
-40.009	131.34
-38.148	95.97
-36.694	57.183
-35.574	17.711
-34.863	-20.495
-34.732	-56.584
-35.417	-90.481
-37.288	-122.21
-41.172	-150.99
-50.538	-168.32
-50.12	-51.848
-42.131	-67.503
-39.257	-89.662
-38.416	-110.09
-38.754	-126.1
-39.535	-136.04
-39.962	-142.1
-39.98	-150.34
-40.444	-163.36
-42.286	-177.9
-46.335	176.9
-49.164	-148.7
-44.144	-134.39
-40.69	-153.22
-39.3	177.6
-39.369	142.83
-40.312	103.18
-41.354	59.661
-41.919	17.601
-42.196	-15.193
-42.174	-34.488
-40.989	-45.477
-38.96	-59.921
-37.334	-80.807
-36.754	-105.89
-37.586	-133.12
-40.422	-160.48
-47.263	177.87
-55.112	-88.324
-44.815	-89.593
-42.337	-116.46
-43.418	-145.11
-49.372	-170.96
-55.616	-48.229
-43.275	-66.146
-39.125	-96.478
-37.583	-127.76
-37.636	-158.86
-38.96	170.12
-41.65	138.92
-46.343	109.29
-54.841	100.04
-53.923	151.96
-47.808	129.11
-44.161	91.297
-41.544	52.166
-39.803	13.991
-39.074	-23.292
-39.566	-60.91
-41.715	-102.49
-46.237	-163.11
-45.93	91.621
-40.001	27.795
-36.523	-15.305
-34.85	-54.001
-34.557	-92.302
-35.528	-132.35
-37.742	-177.02
-40.699	127.72
-42.097	60.317
-41.044	1.954
-40.113	-40.15
-40.138	-71.376
-40.743	-94.603
-41.324	-113.57
-41.855	-134.34
-43.171	-161
-46.81	164.82
-58.508	98.896
-49.341	-62.249
-42.602	-107.8
-39.455	-150.36
-37.955	165.41
-37.507	118.23
-37.687	67.229
-37.969	12.31
-37.872	-44.037
-37.43	-97.151
-37.122	-143.95
-37.311	176.48
-38.039	144.8
-38.901	121.93
-39.018	105.16
-38.238	85.835
-37.501	59.497
-37.453	26.965
-38.285	-11.529
-39.948	-57.819
-41.721	-114.07
-42.203	-173.92
-41.585	136.18
-40.963	98.711
-40.405	69.888
-39.507	44.272
-38.282	16.022
-37.12	-17.179
-36.225	-54.65
-35.62	-95.332
-35.394	-138.57
-35.797	175.91
-37.17	127.66
-39.748	73.363
-42.658	3.0384
-42.077	-77.773
-39.447	-138.87
-37.992	173.39
-38.22	130.49
-40.392	88.319
-45.38	38.974
-51.21	-63.87
-44.75	-147.96
-40.967	171.63
-39.386	140.28
-38.997	113.24
-39.244	88.796
-39.766	65.106
-40.373	40.123
-40.939	12.72
-41.236	-16.495
-40.968	-45.502
-40.009	-72.677
-38.567	-98.43
-37.082	-124.21
-35.994	-150.71
-35.59	-177.8
-36.087	154.5
-37.866	125.71
-42.025	94.531
-54.776	45.014
-46.464	-129.58
-40.206	-163.38
-37.975	167.83
-37.704	141.36
-39.012	117.93
-41.927	101.42
-45.747	103.33
-46.015	121.36
-43.773	117.46
-42.724	96.878
-43.075	67.223
-44.297	28.1
-44.985	-21.827
-43.822	-72.284
-42.037	-112.79
-40.98	-144.95
-41.069	-171.01
-42.381	170.08
-44.538	163.72
-45.251	173.17
-43.144	176
-41.116	163.25
-40.35	142.7
-40.977	118.65
-43.238	92.389
-48.09	62.894
-60.632	3.1201
-52.951	-140.49
-47.492	-171.4
-45.564	165.76
-45.201	147.95
-45.405	136.87
-44.868	131.31
-42.975	122.38
-40.561	104.49
-38.364	79.298
-36.655	49.749
-35.549	18.236
-35.143	-13.497
-35.562	-44.184
-37.068	-72.381
-40.148	-94.083
-44.792	-93.464
-44.289	-66.359
-40.823	-72.9
-39.741	-95.732
-41.492	-123.02
-48.931	-150.48
-49.949	-6.5045
-39.837	-34.207
-36.115	-63.807
-34.89	-93.003
-35.52	-120.2
-37.927	-142.22
-41.894	-150.36
-44.115	-136.51
-42.979	-137.85
-43.635	-163.02
-47.998	145.46
-47.457	38.326
-41.248	-18.047
-38.538	-53.578
-38.636	-82.536
-41.948	-100.69
-46.955	-65.786
-39.912	-37.841
-35.268	-53.526
-33.144	-75.183
-32.656	-96.108
-33.314	-112.85
-34.46	-122.95
-35.234	-128.37
-35.662	-135.55
-36.799	-145.51
-39.524	-149.69
-41.887	-127.49
-38.34	-109.07
-34.896	-120.15
-33.437	-141.27
-33.797	-164.47
-36.041	175.23
-40.427	169.27
-42.31	-160.65
-38.349	-155.26
-36.217	-174.18
-36.266	161.35
-38.435	137.83
-43.421	126.1
-46.831	166.58
-41.118	175.39
-38.14	153.57
-37.388	127.02
-38.209	101.98
-40.207	83.624
-42.169	78.308
-41.821	77.948
-40.334	64.981
-39.799	42.168
-40.971	16.126
-44.795	-5.8255
-52.349	16.312
-45.79	58.3
-40.904	38.507
-38.968	10.085
-38.976	-21.001
-40.978	-54.59
-46.24	-95.415
-55.099	147.92
-45.331	61.38
-41.325	25.104
-40.029	-4.6607
-40.404	-30.999
-42.18	-53.476
-45.215	-69.793
-49.082	-77.885
-53.974	-84.191
-72.554	-166.66
-50.163	76.762
-42.615	48.854
-38.347	19.175
-35.827	-12.249
-34.504	-45.4
-34.16	-81.172
-34.81	-121.28
-36.595	-168.72
-39.205	129.99
-39.987	51.501
-37.537	-18.878
-34.93	-74.283
-33.155	-123.62
-32.224	-171.1
-32.066	141.69
-32.581	93.46
-33.621	42.105
-34.868	-14.748
-35.681	-76.399
-35.875	-136.52
-36.227	169.33
-37.633	118.93
-40.967	63.793
-45.29	-25.838
-40.819	-120.93
-36.578	-174.12
-34.681	144.01
-34.477	105.45
-35.794	66.329
-38.832	20.468
-42.67	-49.464
-40.946	-131.83
-37.67	177.73
-36.241	142.01
-36.56	113.25
-38.689	92.321
-42.405	91.315
-42.067	116.85
-38.029	114.19
-35.609	92.42
-34.896	63.113
-35.663	27.958
-37.664	-15.978
-39.63	-74.183
-39.252	-136.09
-38.064	177.07
-38.219	144.03
-40.293	126.52
-41.972	139.15
-38.241	149.78
-34.555	134.94
-32.501	110.96
-31.785	83.423
-32.22	53.442
-33.726	20.423
-36.104	-18.208
-38.315	-66.809
-38.236	-119.92
-36.273	-162.36
-34.24	164.84
-32.79	135.87
-32.106	107.97
-32.241	80.422
-33.177	53.185
-34.853	26.246
-37.125	-0.3965
-39.561	-26.993
-41.284	-54.709
-41.551	-84.798
-40.737	-115.56
-39.911	-144.22
-39.93	-168.74
-41.246	175.29
-42.895	178.48
-41.071	-168.86
-37.829	-174.8
-35.812	168.88
-35.115	150.53
-35.407	134.51
-36.019	122.94
-36.16	112.22
-36.036	94.409
-36.569	64.923
-38.036	19.129
-38.34	-46.434
-35.694	-107.57
-33.114	-152.82
-31.854	169.6
-32.1	135.18
-34.202	103.02
-39.279	76.558
-50.113	103.9
-42.07	151.46
-38.404	126.01
-38.532	90.23
-42.004	39.29
-44.269	-60.334
-38.315	-132.74
-34.639	-173.91
-32.973	152.47
-32.664	121.86
-33.396	93.166
-34.914	65.771
-36.918	37.828
-39.056	5.0557
-40.668	-37.712
-40.699	-87.773
-39.544	-133.67
-38.695	-172.25
-38.945	153.92
-40.81	123.06
-45.538	96.134
-60.342	121.06
-47.058	-164.13
-41.622	172.98
-39.231	147.14
-38.224	120.66
-38.091	93.218
-38.686	63.948
-40.073	31.762
-42.559	-5.0621
-46.966	-52.166
-52.881	-144.74
-46.849	114.6
-41.53	62.904
-38.374	21.119
-36.551	-16.725
-35.737	-51.498
-35.73	-83.06
-36.294	-111.27
-37.098	-137.02
-37.86	-163.19
-38.572	165.89
-39.39	126.8
-40.202	78.912
-40.732	25.598
-41.331	-29.295
-42.756	-89.998
-43.556	-170.94
-39.705	109.85
-35.464	55.877
-32.832	13.724
-31.703	-22.834
-31.987	-55.486
-33.863	-83.604
-37.911	-101.22
-42.735	-81.321
-39.336	-57.042
-36.419	-67.918
-35.784	-83.332
-36.341	-92.584
-36.383	-93.766
-35.034	-98.572
-33.777	-114.41
-33.821	-137.65
-35.724	-163.89
-40.469	170.23
-54.926	165.73
-45.319	-82.305
-40.292	-107.68
-39.727	-135.96
-42.266	-161.51
-48.738	-172.18
-52.836	-114.88
-48.111	-107.2
-48.842	-120.33
-54.446	-93.816
-47.282	-49.56
-42.092	-63.794
-40.113	-84.176
-40.11	-100.95
-40.858	-107.25
-40.107	-107.52
-38.308	-119.15
-37.44	-142.91
-38.233	-175.81
-41.212	137.51
-44.53	54.777
-40.95	-27.099
-38.038	-74.527
-37.601	-108.72
-39.423	-130.42
-41.614	-122.87
-37.781	-111.97
-33.577	-131.79
-31.196	-162.55
-30.237	162.82
-30.486	125.97
-32.034	87.535
-35.306	48.622
-41.641	13.049
-55.296	51.918
-43.496	78.72
-39.329	36.559
-37.624	-13.759
-36.857	-68.511
-36.477	-124.02
-36.51	-177.06
-37.361	132.81
-39.692	83.007
-44.725	23.87
-49.063	-89.109
-43.202	-171.02
-40.563	144.59
-40.856	112.38
-43.603	98.917
-43.757	118.73
-39.245	115.25
-36.536	90.75
-35.983	60.132
-37.689	26.618
-43.214	-11.979
-54.45	-160.86
-41.204	126.84
-37.321	94.997
-36.233	70.693
-36.311	55.48
-35.81	47.872
-34.132	35.522
-32.613	12.43
-32.086	-19.29
-32.765	-58.7
-34.533	-107.94
-36.298	-170.36
-36.222	122.9
-35.315	66.168
-35.277	17.057
-36.731	-30.839
-39.93	-84.738
-43.598	-158.61
-42.792	121.04
-40.547	67.62
-39.452	29.475
-38.999	-0.36185
-38.259	-25.806
-36.816	-52.411
-35.1	-82.915
-33.66	-115.89
-32.879	-148.92
-33.075	-179.56
-34.538	156.24
-36.924	148.34
-36.624	159.18
-33.406	154.57
-31.156	134.75
-30.578	110.02
-31.927	85.649
-36.129	70.885
-40.457	111.19
-33.626	129.55
-29.538	110.94
-27.733	86.658
-27.516	61.944
-28.737	39.956
-31.221	26.221
-33.591	27.887
-33.474	34.227
-32.461	28.54
-32.395	16.166
-33.467	5.2679
-34.895	2.0701
-35.196	3.4433
-34.704	-1.7832
-34.948	-13.367
-36.604	-23.215
-38.846	-18.425
-37.848	-4.3457
-35.132	-10.303
-33.689	-29.562
-33.88	-53.057
-35.76	-75.165
-39.287	-87.198
-41.834	-75.347
-39.62	-71.271
-37.619	-92.945
-37.39	-126.95
-38.778	-169.08
-41.261	138.83
-43.345	74.303
-43.705	7.9953
-43.994	-50.826
-45.885	-108.69
-49.393	179.34
-49.696	88.082
-47.077	21.043
-46.278	-29.721
-48.139	-79.464
-53.376	-150.73
-51.553	96.544
-46.165	40.724
-43.648	5.4873
-42.751	-20.249
-42.388	-37.61
-41.437	-50.871
-39.856	-68.54
-38.485	-93.526
-37.768	-124.31
-37.711	-159.42
-38.093	162.27
-38.529	122.72
-38.651	85.314
-38.295	52.999
-37.453	25.587
-36.318	-0.021981
-35.334	-26.738
-34.996	-55.626
-35.739	-87.047
-38.241	-122.94
-44.284	-176.85
-44.632	55.617
-37.173	-3.9213
-33.641	-42.855
-32.234	-78.121
-32.454	-112.87
-34.528	-149.37
-39.789	165.67
-46.744	46.981
-37.884	-34.977
-33.888	-74.059
-32.463	-107.35
-32.844	-138.37
-35.16	-166.7
-40.496	173.16
-48.906	-140.81
-40.541	-109.87
-36.64	-129.7
-35.587	-154.28
-36.515	-177.61
-39.389	165.49
-43.985	171.16
-43.069	-154.32
-38.597	-155.75
-35.956	-173.69
-34.647	164.6
-34.071	141.86
-33.883	117.74
-34.004	90.929
-34.552	60.593
-35.643	26.904
-37.267	-9.6448
-39.357	-49.302
-41.975	-93.529
-45.407	-146.13
-49.357	141.96
-49.447	51.302
-46.504	-16.999
-44.637	-69.399
-44.206	-117.48
-45.24	-166.93
-47.866	135.26
-50.538	53.458
-47.844	-34.366
-43.763	-95.368
-40.815	-144.31
-38.823	172.1
-37.604	132.38
-37.093	96.489
-37.291	65.014
-38.165	39.488
-39.391	22.457
-40.014	14.211
-39.328	6.9272
-38.165	-6.5454
-37.479	-24.976
-37.535	-44.795
-38.167	-63.552
-39.022	-81.06
-39.856	-99.9
-40.825	-124.15
-42.323	-157.29
-44.244	157.96
-45.333	103.47
-45.095	52.321
-45.274	11.454
-47.688	-19.411
-54.775	-14.898
-49.114	40.28
-43.046	21.065
-40.545	-8.1047
-40.287	-39.393
-42.315	-71.813
-48.457	-105.36
-61.219	40.631
-46.465	4.1374
-43.691	-34.537
-44.738	-81.241
-47.361	-159.07
-42.789	113.46
-37.784	62.838
-35.089	23.332
-34.311	-12.157
-35.31	-44.406
-38.401	-72.321
-45.465	-87.059
-48.984	-5.2853
-40.764	-5.4617
-37.788	-25.707
-36.986	-44.571
-37.077	-57.934
-36.94	-66.942
-36.228	-78.349
-35.679	-96.19
-35.974	-119.24
-37.471	-145.77
-40.614	-175.74
-46.64	145.25
-54.233	41.264
-46.898	-36.354
-43.194	-67.479
-41.32	-91.34
-40.217	-114.61
-39.763	-140.76
-40.217	-171.49
-41.989	151.36
-45.644	100.46
-48.722	10.363
-44.183	-74.202
-40.362	-128.59
-38.408	-175.93
-37.81	137.49
-38.335	88.935
-39.886	35.258
-42.041	-29.069
-42.865	-106.71
-41.092	179.62
-38.851	118.72
-37.162	64.779
-35.984	14.051
-35.146	-34.487
-34.596	-80.499
-34.432	-123.04
-34.793	-160.85
-35.701	167.61
-36.939	143.86
-37.921	127.84
-38.111	114.75
-37.974	98.193
-38.539	77.716
-40.614	57.205
-45.434	45.908
-50.124	99.53
-41.608	118.2
-36.706	97.707
-34.037	70.677
-32.697	41.545
-32.294	10.947
-32.702	-21.829
-33.987	-58.12
-36.261	-100.38
-39.243	-154.51
-40.642	134.72
-38.783	68.644
-36.528	17.184
-35.065	-27.167
-34.346	-68.148
-34.159	-106.93
-34.369	-144
-34.979	-179.57
-36.102	146.51
-37.905	114.69
-40.668	85.806
-45.018	63.195
-51.315	67.819
-49.387	99.278
-45.11	78.897
-42.753	38.805
-40.724	-10.4
-38.135	-61.069
-35.403	-107.33
-33.211	-148.73
-31.846	173.45
-31.351	138.17
-31.733	104.72
-33.05	72.814
-35.439	42.528
-39.197	14.318
-45.186	-10.1
-57.112	-11.365
-55.059	80.021
-50.958	63.345
-51.167	32.273
-52.831	-19.78
-50.351	-90.807
-45.297	-139.66
-41.693	-175.71
-39.756	152.03
-39.401	121.34
-40.892	91.992
-45.571	67.557
-55.673	118.17
-44.432	147.63
-39.955	119.9
-38.474	85.866
-38.935	46.155
-41.009	-4.8208
-42.74	-75.928
-41.085	-145.67
-39.344	165.39
-39.447	129.03
-41.937	105.41
-45.306	117.17
-41.038	133.45
-36.823	112.55
-34.717	79.359
-34.162	39.074
-34.707	-9.122
-35.412	-66.521
-34.989	-127.18
-33.778	178.85
-32.992	131.86
-33.273	87.743
-34.968	42.423
-38.281	-11.609
-41.138	-90.586
-38.671	-167.88
-35.953	141.13
-34.993	100.71
-35.802	64.993
-38.764	33.462
-46.066	15.47
-47.849	98.668
-39.388	86.864
-35.907	56.366
-34.502	22.439
-34.423	-13.302
-35.38	-50.542
-37.176	-89.09
-39.547	-128.18
-42.061	-164.82
-43.899	167.53
-43.54	149.95
-41.107	129.33
-38.602	101.71
-36.894	71.22
-36.091	40.661
-36.19	11.648
-37.196	-13.785
-38.891	-31.873
-40.132	-39.681
-39.656	-47.137
-38.81	-65.079
-39.079	-90.869
-41.178	-121.1
-46.759	-157.48
-58.392	54.71
-44.709	-22.192
-40.954	-59.82
-40.784	-92.958
-43.905	-118.03
-50.466	-95.314
-43.178	-61.424
-37.964	-86.623
-35.684	-122.3
-35.221	-163.31
-35.983	148.87
-37.066	90.788
-37.065	26.055
-36.274	-33.435
-36.3	-86.436
-38.068	-141.09
-41.053	142.39
-38.33	48.775
-33.615	-10.9
-30.843	-56.186
-29.713	-97.319
-29.999	-138.22
-31.749	177.14
-34.838	119.95
-36.031	40.402
-32.999	-26.225
-30.356	-72.037
-29.084	-109.73
-29.092	-143.66
-30.311	-174.44
-32.722	158.75
-36.373	138.15
-41.088	129.7
-44.947	138.49
-46.97	146.36
-50.522	159.87
-48.691	-154.95
-42.521	-158.03
-38.924	176.03
-37.151	141.41
-36.515	100.8
-36.35	54.689
-36.046	4.5622
-35.502	-46.068
-35.219	-94.578
-35.74	-140.94
-37.391	172.58
-40.403	119.85
-43.776	45.682
-42.486	-40.627
-39.417	-102.59
-37.675	-153.16
-37.062	158.17
-37.099	107.75
-37.345	55.335
-37.607	3.8477
-38.108	-43.383
-39.284	-85.1
-41.639	-120.49
-45.691	-143.39
-48.902	-135.09
-46.02	-135.75
-43.576	-166.56
-42.598	149.45
-42.273	96.792
-41.983	39.089
-41.741	-19.373
-41.958	-78.565
-42.478	-143.06
-42.004	146.19
-40.089	80.503
-38.281	24.888
-37.525	-25.131
-38.074	-74.787
-39.903	-130.79
-41.687	157.21
-40.355	80.685
-37.953	21.455
-36.738	-27.418
-36.997	-73.243
-38.699	-120.42
-41.529	-174.1
-43.916	122.24
-44.531	63.865
-45.574	27.64
-46.984	26.526
-43.045	35.528
-38.611	18.655
-36.019	-7.1287
-35.003	-34.864
-35.49	-61.497
-37.544	-82.076
-40.351	-85.933
-40.067	-76.093
-37.46	-84.669
-35.85	-108.78
-35.828	-140.22
-37.6	-175.73
-41.77	143.8
-50.781	72.449
-45.855	-61.194
-39.52	-111.15
-36.342	-150.54
-34.604	173.93
-33.608	141.95
-32.957	113.05
-32.487	86.099
-32.241	59.89
-32.391	33.832
-33.139	8.106
-34.684	-16.617
-37.292	-39.041
-41.366	-55.812
-47.135	-57.125
-52.214	-28.21
-53.032	20.297
-46.865	55.87
-40.558	51.225
-36.496	31.938
-34.202	7.5179
-33.396	-18.633
-34.039	-44.333
-36.343	-66.503
-40.737	-75.404
-43.426	-46.195
-39.301	-35.912
-36.633	-53.101
-35.956	-77.11
-36.904	-102.64
-39.534	-127.69
-44.642	-150.24
-57.312	-154.28
-51.6	-32.702
-45.096	-44.987
-41.928	-62.488
-39.959	-83.975
-38.957	-110.29
-39.07	-141.14
-40.473	-175.48
-43.364	147.51
-48.427	108.76
-60.175	84.738
-54.086	170.77
-46.568	128.89
-42.69	83.036
-40.51	38.115
-39.647	-7.2216
-40.035	-56.845
-41.171	-117.31
-40.729	171.38
-38.046	110.72
-35.527	65.55
-33.97	29.2
-33.385	-1.3773
-33.586	-26.253
-34.138	-44.969
-34.508	-59.393
-34.635	-73.643
-35.066	-89.647
-36.449	-104.42
-38.835	-108.39
-39.206	-93.284
-35.874	-90.468
-32.895	-106.54
-31.22	-130.17
-30.729	-156.11
-31.258	178.2
-32.707	154.58
-34.975	135.52
-37.531	124.67
-39.022	119.76
-39.447	107.93
-40.534	83.966
-43.537	45.26
-47.325	-31.303
-42.96	-114.94
-38.515	-160.75
-36.118	164.14
-35.148	132.86
-35.345	103.98
-36.681	77.767
-39.308	55.914
-43.694	44.019
-48.959	67.87
-45.161	103.53
-40.582	97.264
-37.847	79.68
-36.31	58.586
-35.692	35.727
-36.021	11.641
-37.636	-12.667
-41.423	-32.99
-48.878	-19.193
-44.011	31.933
-38.537	15.919
-36.046	-12.445
-35.457	-45.239
-36.61	-81.387
-39.851	-123.11
-45.884	173.05
-45.763	63.397
-41.019	1.8068
-39.294	-43.394
-40.044	-88.357
-43.211	-143.81
-45.587	127.4
-41.512	50.756
-38.413	3.3486
-37.403	-34.907
-38.352	-68.766
-41.665	-97.139
-49.018	-105.09
-50.088	-39.524
-44.5	-40.278
-42.811	-53.058
-42.322	-57.664
-40.463	-58.305
-37.771	-70.634
-36.021	-93.665
-35.741	-122.36
-37.284	-154.89
-42	166.6
-54.877	46.297
-40.986	-59.057
-36.072	-100.46
-34.268	-138.78
-34.348	-177.05
-36.188	142.37
-40.338	92.179
-44.893	-0.46204
-39.85	-86.982
-35.924	-133.09
-34.002	-167.76
-33.116	164.07
-32.503	140.67
-31.652	118.75
-30.595	94.275
-29.733	65.539
-29.385	32.997
-29.675	-2.6188
-30.636	-41.329
-32.304	-84.035
-34.646	-132.38
-37.401	172.19
-39.989	111.27
-42.315	50.634
-45.33	-7.5842
-50.269	-71.726
-55.542	-170.67
-53.739	90.127
-53.028	10.772
-50.807	-82.097
-45.419	-151.51
-41.524	161.44
-39.417	124.3
-38.695	93.622
-39.051	69.106
-40.132	51.939
-41.322	42.697
-42.115	38.925
-42.488	39.489
-41.668	45.062
-38.944	45.149
-35.815	31.934
-33.461	9.1582
-32.149	-18.623
-31.824	-48.567
-32.376	-79.2
-33.786	-109.69
-36.201	-138.65
-39.915	-161.78
-44.558	-166.02
-45.269	-148.34
-42.642	-151.11
-40.796	-166.16
-39.557	177.41
-38.344	160.65
-37.133	140.94
-36.367	116.94
-36.536	89.124
-38.217	58.033
-42.829	22.55
-59.386	-75.92
-43.213	151.58
-37.958	112.75
-36.067	76.021
-36.233	38.818
-38.527	0.30939
-44.425	-39.583
-67.047	78.596
-44.352	50.254
-39.438	2.5078
-36.471	-47.966
-34.123	-98.099
-32.447	-145.39
-31.761	171.01
-32.292	130.8
-34.374	92.634
-39.194	53.346
-53.609	-31.122
-41.713	-171.54
-36.968	152.56
-35.887	124.83
-37	105.5
-39.324	104.66
-38.353	121.03
-35.043	116.97
-33.108	99.93
-32.674	80.399
-33.584	62.787
-35.813	53.105
-37.777	62.754
-35.869	75.068
-33.099	68.015
-31.371	51.937
-30.608	32.882
-30.684	13.258
-31.499	-4.7268
-32.736	-18.662
-33.736	-28.131
-33.975	-37.236
-33.733	-51.053
-33.644	-70.528
-34.054	-94.01
-35.01	-119.73
-36.373	-146.46
-37.809	-173.51
-38.739	158.86
-38.602	128.96
-37.376	95.764
-35.565	60.481
-33.756	24.814
-32.357	-10.062
-31.574	-43.215
-31.463	-73.758
-31.994	-100.64
-32.999	-122.29
-33.926	-137.72
-34.094	-151.08
-33.816	-169.38
-33.997	165.16
-35.309	132.4
-38.321	88.7
-42.336	17.954
-40.829	-67.85
-37.911	-122.2
-37.171	-163.47
-38.877	158.99
-44.749	121.73
-57.386	-77.444
-42.233	-122.52
-38.765	-157.18
-38.68	169.31
-41.787	137.08
-52.898	111.37
-47.432	-113.68
-40.459	-140.97
-38.263	-167.98
-38.224	169.74
-39.071	156.23
-39.106	148.66
-38.148	134.05
-37.677	107.57
-38.601	70.478
-41.188	20.097
-43.763	-54.847
-41.822	-136.14
-38.781	162.94
-36.927	110.02
-36.238	59.263
-36.526	10.657
-37.838	-34.795
-40.817	-76.499
-48.354	-109.22
-51.05	-9.2924
-41.841	-35.089
-39.291	-72.9
-39.905	-114.21
-43.987	-170.65
-44.946	73.08
-37.764	3.1874
-34.13	-40.319
-32.925	-77.562
-33.691	-111.91
-37.031	-143.94
-47.487	-161.64
-42.855	-51.833
-36.06	-76.71
-33.837	-105.49
-33.712	-133.25
-35.202	-158.35
-38.176	-176.54
-41.343	179.96
-41.747	178.22
-41.159	153.82
-40.871	108.67
-39.437	53.995
-37.13	6.6827
-35.456	-30.302
-34.908	-59.847
-35.519	-82.866
-37.175	-97.033
-38.939	-97.054
-38.534	-88.91
-36.626	-91.174
-35.248	-103.02
-34.893	-118.55
-35.64	-134.02
-37.537	-144.76
-39.774	-142.08
-39.278	-130.83
-36.971	-136.67
-35.578	-157.38
-35.568	172.76
-36.923	133
-38.987	76.774
-38.973	5.9903
-36.98	-53.85
-35.877	-101.43
-36.435	-145.31
-38.864	167.02
-42.622	100.45
-42.118	15.321
-39.073	-40.85
-37.793	-78.651
-38.28	-106.12
-39.892	-121.21
-40.682	-122.6
-39.389	-127.05
-38.047	-143.58
-37.759	-166.3
-38.512	169.99
-39.799	148.52
-40.62	128.67
-40.24	103.32
-38.972	67.382
-37.294	23.915
-35.528	-21.424
-33.95	-65.466
-32.733	-107.84
-32.004	-149.21
-31.928	170.12
-32.709	131
-34.526	95.458
-37.579	67.17
-41.785	56.265
-42.993	72.44
-39.864	69.782
-37.878	48.358
-37.532	22.653
-38.415	-2.4509
-40.176	-26.119
-42.603	-50.799
-45.674	-84.98
-47.82	-146.01
-44.608	147.31
-40.637	103.37
-38.282	68.564
-37.585	37.383
-38.602	10.122
-41.534	-7.8325
-45.008	1.1389
-42.624	17.708
-39.413	2.1363
-38.319	-27.169
-39.3	-63.017
-42.463	-107.12
-47.517	-177.47
-46.39	83.501
-42.602	19.948
-40.854	-32.724
-40.14	-86.044
-39.289	-139.86
-37.999	171.2
-36.863	129.9
-36.371	95.858
-36.574	68.938
-37.091	49.54
-37.192	35.781
-36.51	21.482
-35.544	1.6037
-34.89	-24.407
-34.806	-55.698
-35.378	-92.085
-36.648	-134.16
-38.545	176.57
-40.517	117.43
-41.067	49.762
-39.654	-13.351
-37.929	-64.897
-37.06	-106.51
-37.363	-137.72
-38.337	-153.54
-37.54	-153.88
-34.169	-162.17
-31.059	174.77
-29.32	144.53
-29.025	112.13
-30.096	79.522
-32.866	46.699
-39.26	13.966
-52.16	135.41
-37.202	111.99
-33.694	73.945
-33.153	33.374
-34.778	-11.877
-39.11	-70.701
-42.953	178.5
-36.783	87.254
-32.423	30.708
-29.697	-19.057
-28.033	-66.882
-27.451	-113.63
-28.194	-159.13
-30.639	155.55
-36.064	102.24
-41.432	-21.914
-33.106	-104.27
-29.137	-149.67
-27.63	170.32
-27.771	131.26
-29.428	90.016
-32.743	40.679
-36.331	-30.312
-35.248	-105.42
-32.995	-152.33
-31.964	175.93
-31.834	151.81
-32.155	131.69
-32.78	111.85
-34.031	88.783
-36.646	59.101
-41.75	11.775
-43.9	-85.362
-38.668	-144.85
-35.822	-174.95
-34.451	165.19
-33.472	150.9
-32.337	137.19
-31.271	119.76
-30.776	97.98
-31.181	72.924
-32.779	45.384
-36.138	15.52
-42.989	-20.409
-52.246	-157.15
-41.152	139.05
-36.765	111.15
-34.272	86.193
-32.727	61.02
-31.918	35.002
-31.836	8.3013
-32.655	-18.506
-34.863	-43.042
-39.291	-54.004
-41.137	-20.463
-35.59	-15.747
-31.962	-37.601
-30.154	-66.135
-29.848	-97.27
-31.132	-128.9
-34.43	-158.39
-41.256	-178.14
-48.413	-110.63
-40.282	-101.83
-38.065	-126.22
-39.116	-152.39
-43.531	-171.45
-50.771	-138.75
-44.776	-106.61
-41.736	-125.06
-42.055	-149.53
-45.34	-171.2
-52.32	-172.7
-54.708	-126.68
-54.95	-129.94
-65.662	21.953
-46.337	-1.6069
-40.16	-29.884
-37.201	-58.459
-36.271	-85.723
-36.953	-109.36
-38.85	-125.87
-40.899	-132.03
-41.601	-136.26
-42.12	-153.87
-44.599	169.8
-47.824	93.833
-43.331	14.862
-39.257	-28.227
-37.464	-60.883
-37.447	-88.665
-38.924	-111.25
-41.533	-126.13
-44.399	-133.2
-47.625	-143.71
-57.387	174.43
-48.674	20.119
-40.68	-13.908
-36.787	-44.144
-34.911	-74.797
-34.557	-106.05
-35.547	-137.3
-37.755	-167.97
-40.961	162.08
-44.464	131.56
-46.543	95.463
-45.843	52.117
-43.801	8.2035
-42.343	-35.849
-42.125	-84.534
-42.793	-143.91
-42.557	146.23
-40.899	81.382
-39.693	24.475
-39.585	-34.698
-39.26	-104.99
-36.795	-174.12
-34.028	132.76
-32.513	91.447
-32.552	57.98
-34.394	33.928
-37.496	32.757
-36.032	51.1
-32.303	41.794
-30.389	17.98
-30.396	-10.955
-32.702	-43.148
-39.592	-81.948
-45.392	103.79
-34.865	53.985
-31.848	20.266
-31.752	-11.169
-34.356	-40.787
-42.291	-63.232
-44.498	54.478
-35.566	36.154
-33.043	9.1764
-33.308	-16.397
-35.95	-35.856
-40.867	-32.9
-40.364	2.2836
-36.377	-1.9442
-34.855	-24.149
-35.394	-52.111
-37.636	-85.798
-40.906	-133.7
-41.437	160.66
-38.597	112.01
-36.303	81.154
-35.169	57.69
-35.2	38.084
-36.618	23.367
-39.481	22.831
-39.919	47.771
-36.054	54.997
-33.153	41.845
-31.793	21.541
-31.775	-2.1765
-33.145	-28.954
-36.266	-61.262
-41.492	-112.72
-42.025	160.08
-37.644	110.9
-35.16	83.777
-34.147	64.637
-34.094	51.494
-34.391	45.682
-33.87	45.487
-32.15	40.809
-30.379	26.246
-29.357	3.4568
-29.351	-26.513
-30.474	-65.231
-32.274	-117.24
-32.679	178.45
-31.068	121.27
-29.665	76.373
-29.435	37.197
-30.702	-0.62256
-33.963	-40.198
-40.399	-90.847
-45.88	157.66
-40.944	83.484
-40.25	41.446
-44.42	2.4246
-60.512	-151
-43.05	128.58
-39.42	93.928
-40.062	59.999
-46.929	14.62
-44.706	-151.29
-35.572	166.67
-31.597	136.51
-29.708	109.97
-29.113	86.021
-29.553	64.636
-30.957	46.896
-33.22	35.535
-35.754	34.744
-37.035	43.793
-36.544	50.147
-35.739	48.473
-35.402	43.199
-35.371	38.377
-35.11	34.069
-34.455	26.339
-33.898	11.933
-34.104	-9.6139
-35.694	-38.136
-39.485	-77.072
-45.335	-153.66
-41.411	110.6
-37.169	61.907
-35.586	22.838
-36.153	-14.491
-39.315	-51.355
-49.043	-87.189
-46.488	53.735
-38.067	17.829
-34.711	-18.438
-33.467	-54.019
-33.813	-87.362
-35.773	-115.26
-39.328	-128.18
-40.808	-113.32
-37.806	-113.9
-36.109	-135.68
-36.913	-164.15
-41.568	165.09
-61.367	-33.982
-39.284	-74.866
-34.643	-105.35
-33.483	-132.41
-34.624	-150.92
-36.606	-149.06
-34.807	-135.49
-31.302	-144.83
-29.394	-168.39
-29.502	162.8
-32.019	132.75
-39.273	105.29
-44.439	-127.61
-33.543	-152.29
-30.263	172.72
-29.76	134.15
-31.136	89.713
-33.35	31.422
-33.255	-40.065
-30.99	-98.351
-29.66	-142.24
-29.925	-178.29
-31.756	151.2
-35.342	126.16
-41.623	110.62
-52.431	146.25
-47	-143.61
-42.024	-136.31
-38.416	-141.11
-36.018	-154.69
-35.126	-172.86
-35.964	169.07
-38.712	159.1
-41.664	174.26
-39.445	-165.94
-36.508	-172.45
-35.254	170.95
-35.52	152.84
-36.959	137.78
-38.972	128.9
-40.69	125.37
-41.769	122
-42.47	115.72
-42.682	104.85
-42.229	84.292
-41.255	50.839
-39.782	8.1418
-38.119	-37.018
-36.961	-81.912
-36.809	-128.91
-37.589	175.69
-37.531	106.73
-34.941	41.358
-32.18	-8.5503
-30.653	-49.077
-30.642	-84.104
-32.424	-113.33
-36.595	-128.28
-39.416	-99.528
-34.529	-90.519
-31.444	-110.9
-30.542	-138.07
-31.542	-167.05
-34.99	164.38
-44.683	147.11
-42.054	-101.59
-34.458	-124.84
-31.516	-155.35
-30.364	172.65
-30.223	139.4
-30.751	104.53
-31.774	67.961
-33.22	30.068
-35.279	-8.4748
-38.8	-47.554
-47.8	-92.641
-45.544	73.599
-36.364	32.265
-32.252	-2.8748
-30.111	-36.214
-29.317	-68.177
-29.721	-97.793
-31.18	-122.16
-32.985	-136.89
-33.417	-144.17
-32.165	-158.66
-30.901	174.55
-30.543	139.5
-31.326	100.17
-33.41	58.722
-37.518	14.61
-47.791	-50.24
-42.691	140.93
-35.835	89.351
-33.374	45.658
-33.284	3.133
-35.416	-42.277
-40.437	-105.72
-40.886	142.28
-35.57	75.432
-33.411	30.756
-33.907	-8.3216
-37.626	-45.857
-53.782	-98.81
-39.491	70.962
-33.663	34.129
-31.933	-0.54593
-32.738	-32.963
-36.242	-60.193
-44.161	-61.713
-42.557	-0.20668
-37.676	-12.805
-37.02	-38.114
-39.74	-61.205
-46.69	-55.469
-43.778	-5.8266
-39.511	-22.748
-39.528	-56.166
-44.118	-107.9
-44.971	127.59
-37.188	65.583
-33.599	26.988
-32.551	-7.274
-33.761	-38.549
-37.985	-62.128
-45.817	-31.672
-38.108	4.1065
-33.386	-18.942
-31.517	-50.636
-31.431	-85.597
-32.634	-123.2
-34.6	-165.11
-36.398	146.96
-36.957	97.914
-36.56	56.661
-36.151	24.451
-36.163	-1.9284
-36.895	-25.013
-38.867	-43.933
-42.454	-47.465
-42.631	-21.322
-38.144	-22.25
-35.116	-44.681
-33.576	-74.995
-33.161	-110.89
-33.719	-153.03
-35.03	157.13
-36.461	99.423
-37.289	38.582
-37.831	-19.886
-38.908	-78.743
-40.306	-148.59
-39.083	130.37
-35.573	64.418
-32.785	13.192
-31.241	-31.215
-30.85	-72.569
-31.671	-113.16
-34.163	-155.42
-39.901	152.92
-45.966	19.873
-37.023	-61.889
-33.245	-108.94
-32.037	-153.49
-32.619	159.08
-34.475	102.96
-35.661	33.048
-34.314	-33.719
-32.924	-84.633
-33.44	-124.95
-37.429	-151.86
-42.341	-103.25
-32.881	-92.187
-27.907	-118.52
-25.328	-149.6
-24.366	177.9
-24.905	145.43
-27.129	114.86
-31.737	90.656
-39.853	102.72
-36.228	148.35
-32.523	131.77
-32.325	106
-35.017	82.66
-41.405	80.169
-41.38	134.3
-36.167	129.54
-34.68	107.9
-35.925	88.891
-38.519	88.389
-37.432	100.52
-34.653	88.296
-33.558	60.281
-34.566	22.357
-38.138	-31.726
-40.746	-127.49
-36.189	153.73
-33.169	104.51
-32.177	62.06
-32.96	19.924
-36.014	-25.401
-43.715	-84.531
-46.104	114.66
-38.459	48.646
-35.725	-0.92867
-34.837	-51.338
-34.811	-106.1
-34.963	-165
-34.96	136.33
-35.147	82.379
-36.188	34.027
-38.885	-9.7365
-45.334	-49.747
-57.815	91.54
-42.65	59.605
-38.494	31.245
-36.458	8.5486
-34.808	-10.211
-32.976	-30.637
-31.359	-56.839
-30.462	-89.086
-30.503	-126.81
-31.44	-170.64
-32.857	137.33
-33.784	77.287
-33.768	16.776
-33.862	-39.247
-35.05	-94.885
-37.094	-160.17
-36.984	122.55
-34.338	60.511
-32.45	15.973
-32.079	-18.153
-33.068	-41.761
-34.282	-50.83
-33.561	-53.612
-31.834	-67.437
-31.016	-91.12
-31.672	-119.69
-34.16	-151.05
-39.675	174.65
-58.962	118
-44.888	-74.405
-41.788	-124.91
-41.773	164.88
-38.408	87.179
-34.116	33.877
-31.488	-6.7401
-30.49	-42.535
-31.081	-76.241
-33.627	-109.26
-39.864	-144.8
-51.715	58.985
-38.024	-2.4028
-33.964	-29.501
-32.261	-51.562
-31.598	-70.614
-31.505	-88.245
-31.902	-105.91
-32.957	-124.11
-34.902	-141.89
-37.885	-157.05
-41.765	-167.17
-46.189	-176.18
-52.562	144.89
-47.983	40.668
-40.108	1.2082
-35.654	-28.336
-33.179	-57.182
-32.184	-86.358
-32.549	-116
-34.468	-146.17
-38.789	-177.23
-50.677	143.42
-45.227	-45.545
-38.22	-78.099
-35.354	-107.15
-34.02	-134.84
-33.398	-161.27
-33.012	173.1
-32.618	147.23
-32.257	120.21
-32.193	92.144
-32.799	64.494
-34.476	40.707
-37.406	29.5
-38.694	44.899
-34.909	50.585
-31.426	32.912
-29.468	6.6312
-28.853	-23.027
-29.519	-54.662
-31.681	-88.212
-36.027	-124.83
-44.794	-174.95
-49.035	43.447
-44.466	-11.838
-48.551	-38.9
-48.935	63.439
-38.169	46.316
-33.721	17.089
-31.688	-12.381
-31.252	-40.877
-32.311	-66.48
-34.717	-82.74
-36.33	-82.127
-34.877	-85.815
-33.226	-107.71
-32.756	-141.82
-33.585	172.85
-35.143	112.21
-35.05	38.897
-32.79	-25.01
-30.651	-75.618
-29.365	-119.31
-28.987	-158.67
-29.446	166.76
-30.477	138.94
-31.416	119.32
-31.347	104.09
-30.414	84.363
-29.759	57.164
-30.12	24.627
-31.859	-12.342
-35.555	-58.358
-40.757	-140.38
-36.906	121.16
-32.654	66.29
-30.801	22.306
-30.56	-18.944
-31.561	-60.305
-33.702	-104.31
-36.916	-154.78
-40.385	142.13
-41.596	70.352
-40.584	10.486
-39.307	-36.322
-38.068	-76.204
-36.76	-112.55
-35.484	-147
-34.513	179.95
-34.131	148.77
-34.554	121.02
-35.772	100.57
-36.71	92.719
-35.259	88.459
-32.576	70.61
-30.496	41.247
-29.36	5.4645
-29.072	-34.243
-29.475	-76.662
-30.463	-121.01
-32.078	-166.65
-34.688	146.55
-39.448	96.697
-51.066	12.442
-43.326	-141.1
-37.89	166.1
-36.051	119.3
-36.022	70.941
-36.922	16.114
-37.38	-47.266
-36.426	-109.4
-35.278	-161.31
-35.056	155.71
-36.008	119.44
-38.051	89.015
-40.981	63.743
-44.677	39.957
-50.043	3.6593
-53.595	-99.627
-45.834	-173.18
-41.436	141.26
-39.276	95.594
-38.24	44.651
-37.318	-12.126
-35.904	-69.708
-34.498	-123.53
-33.834	-174.66
-34.249	132.64
-35.432	71.857
-35.523	0.23603
-33.439	-65.8
-31.31	-118.58
-30.271	-164.37
-30.56	151.65
-32.336	104.73
-35.426	45.115
-36.32	-36.277
-33.218	-102.49
-30.772	-148.58
-29.838	173.07
-30.357	137.95
-32.538	104.4
-37.357	70.757
-51.555	13.843
-41.506	-149.79
-35.582	179.27
-33.131	153.79
-32.176	131.02
-32.1	110.79
-32.563	93.169
-33.293	78.028
-34.042	64.61
-34.644	51.086
-35.173	34.765
-35.998	13.256
-37.678	-15.586
-40.864	-57.673
-44.163	-134.61
-40.283	141.71
-36.01	89.715
-33.56	46.876
-32.479	5.923
-32.575	-35.863
-33.96	-80.977
-36.939	-135.04
-40.239	145.27
-37.835	57.567
-34.259	-0.96399
-32.424	-48.232
-32.408	-92.51
-34.55	-136.59
-40.481	173.78
-48.126	23.189
-37.128	-54.632
-33.133	-101.72
-31.939	-149.45
-32.568	156.75
-33.652	90.824
-32.602	18.937
-30.168	-40.75
-28.528	-90.311
-28.376	-135.96
-30.067	178.53
-34.385	125.55
-39.73	24.25
-33.64	-68.251
-29.646	-117.45
-28.203	-158.18
-28.596	164.48
-30.847	129.78
-36.072	101.01
-46.333	137.59
-36.836	168.31
-32.812	138
-31.661	102.01
-32.064	63.389
-33.486	20.947
-35.388	-27.616
-36.795	-81.592
-37.065	-132.37
-36.756	-172.62
-36.332	156.55
-35.892	130.57
-35.704	105.95
-36.187	82.386
-37.7	63.738
-39.609	60.103
-38.394	67.766
-35.086	57.432
-32.769	33.428
-31.915	4.0556
-32.744	-26.834
-36.041	-54.524
-44.002	-49.637
-38.649	6.5539
-32.525	-14.509
-29.576	-46.847
-28.35	-82.874
-28.444	-121.7
-29.781	-163.7
-32.352	149.45
-36.005	93.769
-39.682	24.004
-41.588	-54.189
-42.072	-131.65
-40.849	151.8
-38.091	87.841
-35.714	38.068
-34.401	-3.4036
-34.09	-40.531
-34.547	-76.488
-35.437	-115.57
-36.019	-162.96
-34.976	142.91
-32.433	93.365
-29.913	51.676
-28.142	14.93
-27.291	-19.223
-27.443	-52.097
-28.818	-84.364
-32.006	-115.85
-38.988	-143.19
-50.117	-44.153
-37.986	-46.294
-35.224	-75.261
-35.698	-107.11
-39.448	-143.02
-50.943	144.94
-42.782	4.2694
-37.744	-34.672
-36.828	-66.326
-39.1	-94.39
-47.306	-106.5
-45.744	-9.2697
-38.499	-23.24
-36.38	-46.206
-37.224	-66.365
-41.218	-67.733
-40.327	-23.273
-34.147	-23.896
-30.679	-44.354
-29.092	-69.288
-29.009	-95.74
-30.508	-121.82
-33.968	-143.73
-39.967	-148.75
-42.881	-109.86
-39.667	-103.85
-39.583	-122.06
-44.308	-143.42
-55.499	-36.003
-41.066	-33.65
-37.302	-56.992
-36.882	-78.301
-38.885	-89.01
-40.604	-73.155
-37.502	-61.027
-34.744	-73.087
-34.121	-93.06
-35.956	-111.53
-40.756	-108.1
-39.022	-64.441
-33.532	-70.346
-30.891	-93.484
-30.351	-120.14
-31.662	-145.8
-34.918	-164.28
-38.922	-158.99
-37.627	-145.29
-35.391	-164.03
-35.402	160.5
-37.465	111.95
-39.995	42.221
-39.258	-37.146
-37.541	-102.29
-37.168	-164.95
-37.078	123.79
-35.205	51.653
-32.636	-8.0921
-30.9	-59.535
-30.251	-108.81
-30.553	-159.73
-31.376	145.59
-32.077	88.248
-32.521	33.155
-33.45	-16.185
-35.925	-59.529
-41.892	-95.66
-55.888	-7.3447
-40.604	-2.815
-36.579	-32.513
-35.52	-61.081
-36.181	-83.865
-37.243	-96.025
-36.716	-104.02
-35.099	-122.75
-33.858	-152.61
-33.3	170.17
-33.312	128.04
-33.773	83.131
-34.659	37.439
-36.029	-8.2584
-37.86	-55.334
-39.682	-106.81
-40.281	-161.75
-39.228	149.37
-37.656	110.55
-36.411	78.177
-35.875	48.938
-36.341	21.773
-38.122	-1.7077
-41.294	-14.916
-43.629	-8.9138
-42.545	-10.973
-42.189	-39.955
-43.682	-98.407
-41.318	177.3
-36.161	118.71
-32.628	74.763
-30.658	33.465
-29.99	-9.542
-30.348	-56.238
-31.041	-106.83
-31.108	-157.38
-30.431	158.83
-29.645	124.03
-29.094	96.876
-28.691	75.106
-28.342	55.396
-28.286	34.992
-28.976	12.964
-31.154	-9.8315
-36.665	-25.378
-41.626	37.82
-33.286	43.899
-30.099	18.022
-29.597	-12.69
-31.357	-47.497
-36.447	-94.915
-40.637	148.7
-33.202	75.866
-29.826	36.745
-28.932	4.5613
-29.809	-22.85
-32.216	-43.196
-35.548	-49.401
-36.977	-40.569
-36.138	-43.274
-36.502	-59.886
-39.598	-78.75
-47.79	-72.497
-43.826	-0.29091
-37.477	-13.82
-34.617	-40.637
-33.473	-71.695
-33.302	-105.81
-33.47	-143.8
-33.343	173.43
-32.549	127.54
-31.387	82.105
-30.467	39.402
-30.197	-0.087664
-30.787	-36.553
-32.573	-69.383
-36.319	-92.072
-39.904	-73.129
-34.357	-62.632
-29.853	-88.035
-27.239	-121.65
-25.952	-158.28
-25.928	163.34
-27.335	124.1
-30.542	83.706
-36.76	34.978
-43.298	-83.187
-36.087	-162.77
-33.444	157.61
-33.819	128.63
-36.206	115.71
-36.867	127.05
-33.675	124.58
-31.477	100.76
-31.398	67.268
-33.702	25.569
-38.511	-40.796
-36.915	-142.77
-31.898	159.19
-29.447	117.77
-28.916	81.856
-29.847	50.184
-31.964	24.249
-34.575	8.6973
-35.375	1.6479
-33.94	-17.416
-32.361	-51.58
-31.056	-92.952
-29.936	-136.21
-29.175	-178.85
-29.085	139.84
-29.927	100.11
-31.883	62.197
-35.183	26.73
-40.298	-2.887
-46.983	-7.6458
-46.372	7.5802
-43.062	-20.509
-41.058	-62.215
-40.012	-104.36
-40.05	-143.95
-41.615	177.54
-45.709	132.75
-51.063	38.685
-44.28	-44.099
-39.744	-79.498
-37.472	-103.99
-36.561	-122.61
-36.709	-134.57
-37.21	-134.23
-35.558	-124.11
-31.904	-126.04
-28.686	-140.8
-26.447	-161.88
-25.197	173.57
-24.995	147.11
-25.919	120.23
-28.104	94.109
-32.049	69.807
-39.954	53.411
-46.227	152.3
-37.372	152.48
-35.039	135
-34.775	121.1
-34.971	112.83
-34.66	105.43
-34.199	92.167
-34.54	72.662
-36.305	49.858
-40.299	26.959
-49.765	20.123
-48.081	109.11
-42.174	89.992
-41.147	58.171
-43.053	20.592
-48.421	-34.958
-49.525	-151.91
-43.015	142.15
-39.722	99.255
-38.225	61.544
-37.706	26.904
-37.674	-4.0556
-37.628	-30.157
-37.034	-52.354
-35.777	-74.399
-34.286	-99.11
-33.061	-126.8
-32.461	-156.38
-32.646	173.92
-33.604	145.85
-35.218	120.62
-37.304	99.074
-39.524	80.916
-41.587	61.786
-43.889	32.201
-46.122	-24.276
-43.028	-98.35
-37.759	-147.24
-33.857	176.36
-31.191	144.71
-29.382	115.81
-28.163	88.462
-27.444	61.537
-27.297	34.294
-27.855	6.6713
-29.261	-21.112
-31.703	-49.3
-35.59	-79.609
-41.638	-120.31
-45.938	160.58
-41.621	110.36
-37.295	94.263
-33.178	80.86
-29.757	62.366
-27.416	39.932
-26.225	15.782
-26.207	-8.3446
-27.517	-30.318
-30.446	-44.604
-33.942	-35.233
-32.343	-14.516
-29.229	-21.211
-27.763	-40.389
-27.99	-63.132
-29.965	-85.096
-34.073	-100.44
-40.283	-87.692
-39.15	-47.421
-36.138	-51.035
-36.137	-65.815
-38.637	-75.241
-42.206	-65.358
-43.05	-42.378
-43.324	-28.722
-43.682	6.1386
-37.337	30.505
-32.006	20.84
-28.832	2.3145
-27.126	-18.355
-26.573	-39.142
-27.065	-58.283
-28.442	-73.336
-30.275	-81.944
-31.838	-84.365
-32.759	-85.463
-33.61	-88.819
-35.003	-91.534
-36.597	-88.275
-37.278	-80.664
-37.26	-77.13
-37.828	-76.624
-39.147	-68.783
-38.669	-48.187
-35.329	-38.933
-32.26	-46.698
-30.495	-62.138
-30.023	-79.046
-30.546	-93.207
-31.522	-101.7
-32.052	-104.21
-31.396	-107
-30.127	-117.69
-29.278	-136.88
-29.397	-162.07
-30.777	168.44
-33.871	134.24
-39.937	87.48
-45.129	-27.373
-38.142	-102.54
-34.913	-144.78
-34.141	177.09
-35.461	139.71
-39.637	102.3
-53.837	50.694
-43.091	-135.36
-36.738	-170.59
-34.343	158.56
-34.018	132.73
-35.084	116.34
-36.123	115.29
-34.754	120.46
-32.179	114.05
-30.326	99.786
-29.351	84.835
-28.731	72.224
-27.962	60.524
-27.095	46.204
-26.679	28.048
-27.232	8.1737
-29.095	-9.3125
-32.443	-15.355
-34.121	6.5691
-30.325	14.499
-27.366	-3.5618
-26.299	-29.927
-26.821	-59.051
-28.991	-90.129
-33.82	-124.66
-47.735	172.42
-38.839	9.6062
-33.944	-27.636
-33.041	-59.099
-34.619	-86.634
-38.948	-100.48
-41.006	-71.691
-36.31	-72.351
-33.685	-98.819
-32.747	-131.8
-32.861	-167.73
-33.796	155.49
-35.444	122.41
-37.17	100.83
-36.942	91.079
-34.548	75.765
-32.158	50.587
-30.682	20.428
-30.324	-11.392
-31.214	-42.727
-33.614	-71.187
-38.213	-90.283
-43.959	-67.158
-39.429	-40.041
-35.611	-55.053
-33.85	-77.098
-33.123	-99.232
-32.826	-120.72
-32.709	-143.01
-32.894	-167.54
-33.68	165.98
-35.307	139.43
-37.997	116.24
-41.756	106.02
-42.75	120.66
-38.887	115.78
-35.834	88.25
-34.226	53.462
-33.718	16.451
-34.171	-21.621
-35.772	-60.78
-39.158	-101.34
-46.435	-146.69
-55.29	41.663
-44.075	-21.987
-41.105	-63.848
-41.381	-105.38
-45.241	-149.15
-60.084	126.44
-46.742	-30.759
-40.884	-76.133
-38.187	-121.11
-36.805	-170.38
-35.868	135.07
-34.734	77.916
-33.362	22.428
-32.156	-30.128
-31.383	-81.234
-30.998	-132.59
-30.731	175.4
-30.362	124.32
-30.033	76.64
-30.181	33.926
-31.287	-2.8527
-33.879	-30.768
-38.079	-35.744
-37.379	-10.041
-33.006	-16.663
-30.694	-39.472
-30.312	-64.639
-31.699	-86.515
-34.859	-95.541
-36.296	-75.247
-32.517	-69.807
-29.796	-88.019
-29.01	-112.62
-29.963	-137.4
-32.85	-157.17
-37.615	-155.21
-37.009	-125.52
-33.334	-132.36
-31.979	-155.54
-32.788	177.53
-36.029	151.77
-43.519	140.75
-46.081	-147.05
-40.044	-148.15
-38.714	-163.79
-39.095	-169.06
-37.551	-164.79
-34.196	-175.72
-31.689	158.81
-30.523	126.42
-30.681	90.372
-32.385	51.764
-36.717	10.975
-52.33	-33.796
-40.003	107.77
-33.932	65.229
-31.588	22.761
-31.114	-21.592
-32.321	-71.532
-35.219	-136.86
-35.974	130.2
-32.067	54.594
-28.947	0.70145
-27.223	-47.096
-26.738	-94.475
-27.509	-143.14
-29.5	166.42
-32.553	111.88
-36.255	45.466
-38.057	-41.694
-35.877	-123.48
-33.628	173.71
-32.805	121.82
-33.476	77.278
-35.912	39.389
-41.174	15.536
-45.306	46.434
-40.417	45.206
-39.099	7.9319
-40.582	-54.823
-38.003	-146.78
-32.172	151.17
-28.437	106.57
-26.609	68.128
-26.307	33.045
-27.533	0.19936
-30.959	-29.797
-39.576	-45.138
-39.363	49.042
-32.088	33.48
-29.909	6.8397
-30.368	-19.071
-33.393	-38.187
-38.992	-25.166
-35.409	16.3
-30.306	6.0083
-27.852	-17.499
-27.25	-43.627
-28.071	-68.811
-30.101	-91.244
-33.394	-108.41
-37.772	-111.54
-39.592	-94.637
-37.939	-95.711
-37.103	-116.96
-37.412	-149.64
-38.099	167.57
-38.185	119.99
-37.735	78.907
-37.576	49.687
-37.89	32.825
-37.872	27.914
-36.38	26.538
-34.202	17.643
-32.617	2.0708
-31.989	-16.367
-32.518	-35.25
-34.693	-49.714
-38.035	-41.526
-35.796	-17.004
-31.53	-24.363
-28.752	-46.048
-27.194	-74.402
-26.795	-108.28
-27.697	-147.56
-29.928	166.12
-32.803	105.32
-33.194	27.878
-30.636	-39.118
-28.431	-92.576
-27.199	-139.73
-26.604	176.76
-26.344	135.77
-26.377	96.793
-26.876	60.426
-27.968	28.67
-29.456	4.3359
-30.62	-11.649
-30.73	-24.465
-30.198	-41.393
-29.977	-63.171
-30.523	-86.553
-31.861	-108.33
-33.842	-125.68
-36.025	-135.4
-37.352	-137.11
-37.135	-138.24
-35.948	-144.53
-34.276	-156.82
-32.444	-175.97
-30.865	157.83
-29.836	125.51
-29.468	87.921
-29.696	44.999
-30.276	-4.0141
-30.762	-58.704
-30.812	-115.08
-30.685	-168.22
-30.914	143.05
-31.875	96.789
-33.84	49.53
-37.006	-4.1561
-40.606	-72.187
-42.155	-145.5
-43.558	161.64
-48.813	143.51
-46.497	-163.7
-39.344	-177.6
-36.178	154.77
-35.514	129.03
-36.573	113.88
-36.889	117.28
-33.892	116.68
-30.754	97.107
-29.015	67.19
-28.762	31.487
-29.945	-10.356
-32.314	-64.697
-33.499	-139.79
-31.197	150.04
-29.072	98.747
-28.449	56.844
-29.385	18.805
-32.384	-19.351
-40.404	-69.205
-40.449	124.12
-32.089	74.745
-28.831	38.997
-27.598	5.9924
-27.833	-26.131
-29.732	-57.021
-34.163	-82.42
-43.33	-68.49
-37.315	-9.6848
-31.65	-27.277
-28.966	-54.984
-28.042	-85.275
-28.574	-115.21
-30.57	-142.09
-34.474	-159.49
-38.675	-138.78
-33.814	-119.18
-29.411	-138.18
-26.907	-166.13
-25.57	163.37
-25.141	131.52
-25.668	99.185
-27.257	68.364
-29.866	41.725
-33.29	21.981
-36.999	11.856
-39.952	8.6294
-42.77	0.56637
-49.969	-12.971
-51.707	126.87
-41.266	109.39
-37.294	86.404
-35.607	64.247
-35.275	44.945
-35.773	29.721
-36.75	18.542
-38.224	11.474
-40.274	14.295
-40.294	34.51
-36.561	41.983
-33.14	29.197
-31.05	6.9599
-30.328	-20.473
-31.126	-51.394
-33.811	-85.656
-39.467	-129.66
-45.741	123
-38.969	43.005
-36.176	2.5414
-36.695	-31.772
-41.234	-62.92
-61.835	54.445
-38.945	51.326
-33.732	22.249
-31.625	-6.6687
-31.314	-33.896
-32.364	-58.558
-34.759	-80.044
-39.133	-95.232
-46.549	-77.242
-42.997	-24.888
-38.468	-33.297
-36.951	-52.892
-37.474	-74.154
-40.142	-93.601
-46.511	-99.448
-48.743	-28.02
-41.368	-25.251
-38.424	-47.089
-38.064	-73.855
-39.984	-102.62
-44.65	-134.07
-52.8	171
-50.183	86.616
-43.221	67.257
-37.288	52.207
-32.701	30.886
-29.512	5.384
-27.558	-21.979
-26.656	-49.826
-26.658	-77.563
-27.495	-105.36
-29.257	-134.23
-32.353	-166.62
-37.806	148.19
-41.904	49.037
-35.843	-22.204
-31.961	-60.922
-29.738	-95.076
-28.523	-130.72
-28.127	-170.22
-28.392	145.99
-28.927	99.304
-29.29	52.694
-29.424	8.9332
-29.747	-31.237
-30.808	-68.072
-33.033	-100.6
-36.511	-126.48
-40.899	-145.37
-46.171	-169.89
-49.419	102.27
-40.648	34.013
-35.071	-2.4376
-32.018	-34.152
-30.583	-64.189
-30.468	-94.005
-31.911	-125.05
-36.036	-159.77
-47.94	125.48
-38.013	-8.3247
-31.893	-42.354
-28.862	-69.708
-27.294	-95.186
-26.765	-119.36
-27.118	-141.68
-28.26	-160.9
-30.001	-174.73
-31.648	179.08
-32.142	176.01
-31.822	166.3
-31.936	147.78
-33.336	122.21
-36.919	90.013
-44.877	41.795
-48.67	-95.023
-43.574	-153.1
-46.256	167.07
-53.263	-24.465
-38.243	-71.293
-33.044	-104.53
-30.677	-135.04
-30.114	-163.54
-31.368	171.36
-34.86	159.06
-36.853	-177.04
-32.577	-169.64
-29.492	172.16
-28.192	146.73
-28.43	119.27
-30.117	93.403
-32.923	73.073
-35.904	59.721
-37.964	44.23
-39.583	8.0672
-39.688	-58.546
-36.296	-123.41
-33.195	-170.78
-31.474	148.24
-31.054	106.74
-31.981	60.459
-33.997	6.1053
-35.598	-55.674
-35.641	-111.28
-35.556	-151.14
-36.237	-174.4
-36.232	179.51
-33.972	172.39
-31.599	152.76
-30.228	125.44
-29.982	92.558
-31.019	53.16
-33.37	3.556
-35.498	-62.247
-34.476	-129.21
-32.345	-178.68
-30.976	141.73
-30.574	104.94
-31.107	66.521
-32.466	21.028
-33.693	-39.491
-32.319	-109.12
-29.351	-167.13
-27.091	144.96
-25.964	101.18
-25.971	58.316
-27.173	14.5
-29.746	-32.315
-33.988	-87.684
-39	-170.52
-37.964	88.601
-35.173	14.45
-33.865	-53.38
-33.088	-122.17
-31.968	171.02
-30.582	109.17
-29.376	50.867
-28.643	-6.4216
-28.502	-63.933
-28.926	-121.96
-29.709	178.73
-30.577	116.66
-31.199	51.512
-31.475	-13.693
-31.888	-75.136
-33.212	-132.72
-36.364	167.76
-41.499	78.647
-37.291	-30.571
-32.046	-88.885
-29.235	-133.07
-28.011	-171.56
-27.963	154.63
-28.745	126.85
-29.639	106.77
-29.59	90.636
-28.666	69.476
-27.868	40.688
-27.749	6.6069
-28.439	-30.516
-29.967	-69.479
-32.475	-109.84
-36.441	-151.52
-43.354	164.57
-62.222	56.052
-48.254	-70.398
-45.551	-98.208
-44.822	-106.05
-41.816	-109.09
-38.248	-128.93
-36.219	-159.51
-36.108	165.53
-38.392	128.28
-46.019	85.209
-47.292	-109.89
-37.607	-155.97
-34.26	165.21
-33.43	128.6
-34.476	94.7
-37.597	67.02
-42.744	65.588
-40.539	88.484
-36.342	64.112
-34.694	21.829
-34.73	-29.819
-35.432	-91.703
-35.324	-162.75
-33.805	126.48
-31.777	61.558
-29.867	1.2931
-28.201	-55.368
-26.885	-108.64
-26.1	-158.74
-26.034	154.07
-26.847	109.77
-28.725	68.747
-32.02	33.041
-37.129	12.945
-39.265	27.594
-35.64	14.97
-33.451	-24.01
-32.567	-73.602
-32.106	-129.34
-31.614	173.56
-31.366	119.57
-32.122	69.673
-35.1	21.893
-45.727	-38.505
-38.106	133.88
-30.243	88.223
-26.52	48.418
-24.632	10.489
-24.064	-26.494
-24.796	-62.684
-27.114	-97.433
-31.983	-128.73
-45.112	-131.1
-36.622	-37.086
-31.078	-62.43
-29.448	-91.001
-29.844	-116.67
-31.584	-135.82
-33.817	-144.64
-35.002	-145.77
-35.259	-152.47
-36.688	-165.53
-40.721	-170.58
-43.65	-129.78
-37.711	-112.43
-33.766	-128.7
-32.08	-153.4
-32.303	-179.79
-34.254	156.93
-37.685	142.05
-41.613	143.61
-43.146	156.15
-43.796	156.5
-47.364	163.02
-45.6	-146.64
-38.647	-149.69
-34.537	-173.76
-32.047	156.01
-30.564	121.82
-29.872	84.636
-29.855	46.349
-30.336	9.6186
-31.106	-23.377
-32.038	-51.459
-33.065	-74.007
-34.034	-90.693
-34.655	-102.38
-34.745	-111.66
-34.372	-120.94
-33.625	-131.99
-32.666	-146.92
-31.843	-167.33
-31.524	166.35
-31.942	133.84
-33.162	93.45
-34.813	41.751
-35.552	-20.696
-34.783	-81.148
-34.004	-133.42
-34.267	177.57
-36.039	124.83
-39.126	56.17
-39.113	-34.002
-35.381	-103.52
-32.282	-155.69
-30.118	156.63
-28.738	109.34
-28.122	62.69
-28.133	18.383
-28.535	-23.246
-29.23	-63.989
-30.374	-106.82
-32.253	-154.62
-34.673	150.99
-36.257	92.65
-36.17	40.879
-35.535	0.011974
-35.426	-33.698
-36.482	-61.892
-39.023	-79.766
-41.485	-74.886
-39.406	-64.594
-36.023	-78.743
-33.854	-107.07
-32.923	-142.48
-32.835	178.3
-33.072	137.36
-33.354	97.091
-33.896	60.687
-35.108	32.613
-36.635	19.266
-36.503	18.8
-34.548	13.211
-32.82	-1.5904
-32.262	-20.355
-33.276	-37.008
-35.677	-40.636
-36.16	-22.657
-32.913	-15.093
-29.821	-24.61
-27.676	-41.383
-26.39	-62
-25.96	-85.321
-26.454	-110.85
-28.025	-139.37
-31.144	-175.39
-36.056	120.18
-33.618	23.413
-28.548	-30.283
-25.872	-69.696
-24.797	-105.59
-24.875	-141.64
-25.987	178.95
-28.111	132.17
-30.439	73.674
-30.947	10.651
-30.123	-39.473
-29.742	-75.997
-30.197	-102.06
-30.87	-117.62
-30.507	-127.52
-29.152	-142.36
-27.832	-165.03
-27.054	166.35
-26.982	133.91
-27.605	100.17
-28.719	67.882
-30.005	39.52
-31.031	16.906
-31.196	-0.72215
-30.331	-19.133
-29.244	-42.47
-28.659	-69.451
-28.828	-98.174
-29.939	-127.86
-32.43	-157.84
-37.54	174.68
-50.377	-163.52
-39.973	-103.24
-35.177	-132.85
-33.829	-169.37
-34.562	150.5
-37.092	104.25
-41.005	40.962
-41.902	-46.391
-39.337	-114.56
-38.276	-165.59
-39.424	148.5
-43.452	101.53
-54.306	23.368
-47.946	-128.93
-43.095	177.26
-42.907	126.71
-46.67	57.29
-44.659	-65.659
-37.143	-133.88
-32.718	177.55
-30.076	133.83
-28.491	92.087
-27.64	50.793
-27.429	9.0501
-27.936	-32.917
-29.237	-73.219
-31.223	-108.49
-33.357	-134.37
-34.195	-150.09
-32.89	-167.83
-30.948	164.36
-29.475	129.82
-28.7	92.091
-28.654	52.795
-29.443	12.69
-31.342	-27.411
-35.01	-66.058
-43.088	-97.623
-46.753	11.095
-36.574	-12.007
-32.503	-46.136
-30.382	-81.48
-29.419	-117.55
-29.353	-154.77
-30.04	165.63
-31.251	121.07
-32.328	68.199
-32.125	9.0942
-30.72	-46.694
-29.46	-96.092
-29.144	-141.93
-30.027	172.29
-32.167	121.42
-34.842	56.401
-35.185	-19.325
-33.965	-79.797
-34.388	-126.14
-38.619	-166.12
-53.713	-24.453
-33.962	-61.358
-28.585	-98.584
-26.422	-134.68
-26.247	-168.66
-27.804	159.78
-31.717	132.04
-41.129	129
-37.646	-154.04
-32.109	-172.39
-30.874	160.53
-32.32	135.26
-36.618	122.34
-39.742	153.93
-35.067	162.52
-32.66	141.02
-32.771	113.56
-35.091	87.583
-39.305	73.827
-41.214	81.836
-38.737	66.482
-36.388	25.015
-34.241	-24.452
-32.586	-71.419
-32.214	-112.95
-34.002	-148.48
-40.401	-167.11
-39.856	-89.604
-31.293	-106.19
-27.652	-139.47
-26.447	-176.37
-27.196	143.14
-30.074	94.028
-34.01	17.124
-31.656	-70.719
-28.265	-123.75
-26.936	-163.88
-27.593	160.66
-30.759	130.81
-37.651	129.06
-35.265	174.01
-30.175	155.9
-27.998	121.8
-27.413	80.24
-27.767	31.564
-28.355	-22.488
-28.72	-76.278
-29.214	-124.96
-30.566	-168.52
-33.604	150.83
-40.185	109.34
-55.104	-45.364
-41.079	-122.61
-38.614	-157.85
-40.267	170.88
-48.238	149.99
-47.427	-98.398
-39.011	-119.98
-36.01	-151.37
-35.166	172.73
-35.458	129.18
-35.414	75.399
-33.632	21.322
-31.205	-21.807
-29.36	-55.5
-28.347	-82.937
-28.094	-105.2
-28.344	-121.73
-28.486	-132.56
-27.964	-142.23
-27.133	-156.16
-26.641	-175.02
-26.835	162.3
-27.979	136.39
-30.516	107.86
-35.269	79.075
-43.946	62.158
-49.298	110.44
-45.175	86.463
-41.52	24.701
-36.633	-27.885
-32.999	-67.778
-31.098	-101.33
-30.782	-129.57
-31.767	-150.71
-33.513	-161.18
-34.55	-158.55
-33.295	-154.49
-31.096	-161.94
-29.435	-178.11
-28.567	161.9
-28.333	140.15
-28.655	116.53
-29.726	90.356
-32.115	61.937
-37.146	34.934
-49.659	57.033
-39.109	117.41
-33.478	88.864
-30.752	52.448
-29.633	12.157
-29.817	-30.097
-31.044	-73.045
-33.007	-117.08
-35.37	-163.26
-37.659	150.6
-39.25	114.07
-38.805	94.443
-35.794	76.496
-32.526	50.064
-30.273	18.547
-29.37	-14.82
-30.022	-47.619
-32.677	-76.807
-38.793	-89.553
-40.152	-33.017
-33.371	-38.777
-30.623	-66.657
-30.39	-97.313
-32.551	-126.16
-38.776	-139.24
-38.72	-74.898
-30.965	-87.799
-27.234	-120.62
-25.357	-157.99
-24.581	161.65
-24.634	118.2
-25.375	71.633
-26.631	22.058
-28.154	-30.879
-29.609	-87.876
-30.526	-148.17
-30.565	152.72
-30.006	99.959
-29.411	54.601
-29.17	15.084
-29.536	-19.873
-30.662	-49.942
-32.49	-73.193
-34.55	-86.987
-35.698	-91.897
-35.296	-98.276
-34.702	-113.87
-35.309	-135.02
-37.824	-154.58
-43.242	-156.48
-43.125	-101.69
-35.934	-102.87
-31.821	-127.91
-29.747	-158.64
-29.117	169.44
-29.567	137.79
-30.966	106.46
-33.421	75.586
-37.183	46.877
-42.258	26.018
-46.35	20.436
-46.193	4.1284
-44.508	-36.092
-42.97	-80.249
-42.88	-116.06
-45.313	-132.23
-45.35	-100.46
-38.236	-96.784
-33.407	-118.94
-30.73	-145.84
-29.62	-171.81
-29.667	166.31
-30.331	151.63
-30.425	144.55
-29.201	135.28
-27.818	116.79
-27.182	91.38
-27.465	61.041
-28.784	25.158
-31.401	-18.702
-35.365	-74.424
-39.55	-142.47
-44.096	150.72
-57.484	20.623
-41.006	-99.201
-34.887	-142.7
-32.468	177.2
-32.929	136.68
-37.472	89.037
-42.918	-48.781
-32.197	-122.49
-27.561	-162.41
-25.713	161.95
-25.955	128.96
-28.534	100.52
-35.182	91.385
-34.74	158.35
-27.415	149.21
-24.004	121.87
-22.603	91.074
-22.614	59.364
-23.812	27.971
-26.064	-1.7305
-29.099	-27.423
-31.993	-46.299
-33.03	-62.243
-32.097	-85.646
-30.614	-115.56
-29.483	-145.65
-29.003	-171.48
-28.981	169.76
-28.654	157.97
-27.486	146.74
-26.102	130.12
-25.296	108.35
-25.447	83.696
-26.776	58.176
-29.57	34.255
-34.263	17.429
-40.31	24.398
-41.771	48.49
-43.017	44.657
-53.576	60.477
-42.515	151.75
-35.943	130.01
-33.502	103.13
-33.537	76.664
-36.084	55.136
-41.683	60.542
-39.01	103.34
-33.914	91.032
-31.878	64.024
-32.005	34.098
-34.101	4.8692
-38.702	-17.862
-45.292	-1.1429
-40.848	22.044
-36.939	-8.0322
-34.959	-53.414
-33.575	-105.64
-32.361	-158.51
-31.571	152.03
-31.528	106.15
-32.38	61.377
-34.224	12.931
-36.783	-48.058
-37.564	-125.96
-35.559	165.89
-33.946	115.13
-33.505	73.359
-34.193	35.563
-36.381	-0.89644
-41.84	-36.004
-59.131	74.848
-39.462	67.44
-33.872	37.484
-30.513	7.9779
-28.185	-21.669
-26.725	-51.802
-26.203	-81.185
-26.544	-107.58
-27.46	-129.38
-28.58	-146.33
-29.543	-160.01
-30.316	-174.18
-31.504	167.88
-34.268	145.11
-42.078	112.87
-42.326	-67.646
-32.648	-104.99
-28.914	-134.62
-27.445	-161.45
-27.384	174.91
-28.388	155.8
-30.021	144.44
-30.964	141.24
-30.636	134.01
-30.747	116.18
-32.75	90.437
-38.981	53.141
-43.56	-101.36
-33.334	-155.77
-29.777	171.66
-28.877	143.72
-29.937	121.52
-32.547	114.35
-32.583	130.05
-28.95	126.35
-26.522	103.56
-25.707	74.176
-26.28	41.325
-28.354	4.7266
-32.648	-38.918
-40.88	-113.99
-38.153	118.21
-33.094	59.025
-30.855	11.258
-29.82	-33.744
-29.384	-75.607
-29.364	-112.62
-29.713	-143.61
-30.317	-168.41
-30.997	171.6
-31.824	153.54
-33.389	136.2
-36.653	124.02
-41.822	142.19
-38.148	-176.67
-33.167	175.83
-30.864	155.68
-30.652	134.58
-32.196	119.64
-34.424	120.5
-34.101	133.19
-31.937	132.25
-30.72	120.83
-30.899	109.31
-31.746	106.47
-31.082	111.36
-28.87	106.6
-27.184	90.56
-26.639	69.465
-27.255	46.67
-29.12	23.856
-32.616	2.5317
-39.209	-13.989
-54.247	78.514
-38.44	110.65
-33.123	93.749
-30.22	71.52
-28.76	45.637
-28.515	16.696
-29.491	-16.065
-31.978	-55.816
-36.163	-112.53
-38.037	163.52
-35.883	101.44
-35.315	65.898
-36.669	52.365
-35.573	65.314
-30.626	58.452
-27.091	31.836
-25.302	-0.37803
-24.808	-34.47
-25.52	-70.798
-27.919	-111.68
-33.536	-167.11
-36.614	67.149
-29.154	-5.2554
-25.435	-48.827
-23.793	-87.15
-23.626	-122.93
-24.786	-155.45
-27.231	177.82
-30.748	163.46
-32.92	169.04
-31.584	169.03
-30.359	153.05
-30.336	133.08
-31.092	116.35
-31.49	106.2
-30.315	95.144
-28.525	73.879
-27.262	45.361
-26.685	13.681
-26.86	-19.789
-28.224	-54.17
-31.839	-85.722
-40.46	-88.446
-36.204	-22.113
-29.752	-40.674
-26.703	-70.359
-25.534	-102.62
-25.88	-135.12
-27.603	-166.86
-30.886	161.28
-36.926	125.47
-50.853	40.99
-43.613	-85.096
-43.996	-115.1
-49.909	-40.033
-36.066	-26.24
-29.796	-50.522
-26.284	-78.308
-24.444	-106.99
-23.93	-136.06
-24.857	-165.53
-27.968	166.18
-35.763	152.35
-36.881	-124.4
-29.401	-133.94
-26.532	-160.97
-25.963	166.83
-27.659	130.25
-32.618	87.431
-43.12	-5.3209
-35.898	-120.97
-32.415	-168.41
-33.074	142.46
-36.638	62.643
-32.458	-38.346
-27.204	-92.205
-24.303	-132.4
-22.903	-169.26
-22.643	153.92
-23.417	115.33
-25.163	73.287
-27.589	26.084
-29.787	-25.651
-30.85	-74.61
-31.154	-114.32
-31.485	-147.13
-32.486	-178.87
-35.068	144.08
-39.951	84.02
-38.195	-11.381
-32.352	-60.15
-28.489	-92.005
-26.026	-120.63
-24.751	-148.07
-24.435	-172.99
-24.618	165.18
-24.966	144.7
-25.507	123.29
-26.55	100.09
-28.424	76.717
-31.126	57.064
-33.875	45.221
-35.097	36.78
-34.963	17.955
-35.053	-13.704
-36.103	-53.977
-38.727	-101.14
-44.98	-167.41
-44.059	45.498
-35.747	-21.913
-31.561	-70.618
-29.374	-115.82
-28.528	-160.73
-28.813	153.01
-30.09	104.49
-32.109	53.146
-34.703	-0.89185
-38.729	-56.714
-51.572	-129.33
-40.489	34.097
-33.499	-15.617
-30.581	-58.345
-29.757	-97.593
-30.923	-134.62
-35.534	-166.2
-45.191	-107.73
-32.629	-93.573
-27.583	-126.48
-25.176	-163.76
-24.413	156.57
-25.146	115.27
-27.426	72.833
-31.578	27.576
-38.795	-31.925
-43.357	-154.71
-39.202	129.12
-40.155	82.212
-50.943	66.914
-40.17	153.23
-32.888	116.41
-29.652	75.424
-28.577	34.577
-29.282	-5.1347
-32.261	-43.373
-41.473	-75.254
-38.582	45.727
-29.915	10.93
-26.355	-28.234
-24.985	-68.299
-25.309	-108.6
-27.431	-148.36
-32.209	173.93
-45.752	157.19
-37.333	-104.45
-31.783	-142.6
-30.409	172.81
-31.237	123.57
-33.472	65.228
-35.346	-9.9861
-34.402	-90.389
-32.726	-159.77
-32.08	136.47
-32.212	73.857
-32.485	11.785
-32.843	-49.09
-33.879	-110.86
-35.938	178.56
-36.576	91.291
-33.754	15.307
-31.271	-40.064
-30.374	-85.886
-31.165	-126.78
-33.912	-164.3
-39.875	159.46
-58.528	50.708
-41.952	-57.452
-37.021	-76.19
-33.377	-90.61
-30.112	-111.18
-27.714	-139.36
-26.443	-174.83
-26.5	141.47
-27.676	87.076
-28.258	21.452
-26.703	-40.764
-24.707	-90.363
-23.679	-132.68
-24.191	-171.21
-26.817	155.26
-32.734	137.37
-36.142	-173.31
-29.503	-171.74
-26.579	160.81
-26.182	128.02
-27.888	94.19
-31.98	61.125
-40.679	32.08
-49.497	147.81
-40.939	127.05
-42.01	89.932
-51.324	24.972
-46.199	-123.16
-42.091	-165.18
-45.498	175.27
-44.383	-107.57
-34.37	-119.21
-29.506	-149.45
-27.069	177.46
-26.315	144.07
-26.954	111.87
-28.846	82.779
-31.693	60.881
-33.885	50.183
-33.463	35.794
-32.153	4.103
-31.184	-38.891
-30.681	-86.792
-30.818	-136.79
-31.827	170.09
-33.443	109.16
-34.184	38.863
-33.457	-26.626
-33.552	-79.983
-36.861	-126.33
-57.096	127.3
-34.597	-13.031
-28.228	-49.971
-25.228	-83.763
-24.153	-114.61
-24.536	-141.02
-26.088	-160.17
-28.064	-166.84
-28.29	-163.26
-26.771	-168.44
-25.787	176.1
-25.932	157.73
-27.067	140.93
-28.854	128.78
-30.603	122.4
-31.755	117.44
-32.819	109.07
-34.602	98.534
-37.451	90.695
-41.162	90.885
-45.736	105.07
-46.984	161.82
-39.505	-179.44
-34.379	164.64
-31.403	138.42
-30.05	107.51
-30.111	74.128
-31.634	39.018
-35.369	2.0751
-45.653	-38.579
-43.26	113.23
-35.541	76.95
-32.676	46.187
-31.487	20.62
-30.908	1.2838
-29.962	-13.862
-28.448	-32.043
-27.186	-57.089
-26.831	-88.386
-27.747	-126.12
-30.126	-174.55
-32.439	115.13
-30.549	40.235
-27.746	-12.82
-26.578	-55.609
-27.476	-94.501
-31.158	-130
-41.578	-154
-39.581	-36.44
-33.237	-62.725
-33.009	-93.027
-38.471	-115.29
-41.332	-16.32
-30.629	-27.135
-26.3	-56.474
-24.657	-89.484
-25.263	-123.88
-28.427	-158.49
-36.752	160.19
-38.117	-12.669
-29.123	-56.447
-25.981	-90.24
-25.364	-121.66
-26.424	-149.85
-28.709	-175.09
-32.217	159.52
-37.807	122.31
-41.134	25.854
-34.026	-38.043
-29.683	-73.277
-27.435	-105.49
-26.784	-138.9
-27.721	-175.19
-30.44	142.49
-34.613	82.104
-34.897	-0.9875
-31.74	-57.538
-30.043	-95.679
-30.06	-126.36
-31.75	-150.1
-34.783	-158.91
-35.696	-146.7
-33.158	-147.34
-31.065	-164.77
-29.984	170.75
-29.74	142.01
-30.333	109.79
-31.897	75.165
-34.667	39.706
-39.484	5.1882
-52.217	-10.444
-43.902	90.17
-37.52	54.465
-35.507	12.691
-36.048	-34.712
-38.189	-101.32
-35.918	169.36
-30.51	108.41
-26.739	64.171
-24.547	25.871
-23.586	-9.4643
-23.739	-43.056
-25.174	-74.822
-28.293	-101.54
-33.148	-110.96
-34.884	-91.856
-32.425	-95.739
-31.498	-119.85
-32.808	-151.1
-37.35	177.08
-49.274	-158.15
-37.734	-118.94
-31.867	-158.62
-28.298	155.74
-25.747	109.72
-24.067	65.557
-23.291	24.246
-23.421	-14.214
-24.533	-50.537
-26.977	-85.415
-31.817	-117.8
-43.831	-127.7
-38.973	-31.467
-33.683	-52.416
-32.27	-76.081
-32.322	-95.826
-32.514	-110.28
-31.764	-125.64
-30.516	-149.93
-29.484	177.22
-28.667	138.59
-27.929	96.529
-27.398	53.689
-27.396	13.165
-28.12	-21.798
-29.396	-47.711
-30.235	-62.003
-29.184	-72.643
-27.06	-92.592
-25.324	-121.12
-24.33	-154.16
-24.065	169.97
-24.611	131.38
-26.264	89.649
-29.593	43.114
-35.63	-20.088
-37.509	-137.43
-31.813	150.62
-28.907	102.59
-27.946	59.474
-28.466	17.921
-30.468	-23.329
-34.549	-65.609
-43.714	-116
-45.514	60.344
-37.139	10.315
-34.072	-27.53
-32.741	-59.934
-31.99	-84.95
-30.628	-103.61
-28.294	-123.52
-25.784	-148.9
-23.737	-179.02
-22.5	147.29
-22.363	111.01
-23.627	72.648
-26.864	29.744
-33.396	-38.361
-31.157	-159.2
-25.227	143.37
-22.58	101.68
-21.902	64.427
-22.788	29.314
-25.498	-4.4565
-31.56	-35.534
-50.028	43.677
-32.206	65.588
-28.375	34.74
-28.085	0.79681
-31.221	-34.862
-43.365	-73.637
-36.41	82.512
-29.641	50.736
-27.088	20.156
-26.67	-11.854
-28.57	-46.519
-34.676	-87.397
-42.336	118.96
-30.939	58.415
-26.874	26.258
-25.315	-2.1562
-25.405	-27.278
-26.837	-46.815
-29.234	-55.777
-30.805	-47.945
-29.091	-40.911
-26.799	-52.099
-25.97	-73.188
-26.981	-95.844
-30	-112.13
-34.181	-103.48
-32.356	-78.116
-28.541	-88.276
-26.709	-115.25
-26.901	-150.71
-29.303	165.55
-33.712	102.49
-34.048	10.997
-30.269	-51.797
-28.094	-98.322
-27.697	-143.72
-28.947	166.14
-31.166	105.71
-32.027	35.357
-30.897	-26.637
-30.099	-76.552
-30.683	-121.27
-32.938	-165.66
-36.898	143.89
-40.729	76.348
-40.693	14.492
-39.642	-13.135
-37.311	-20.63
-33.797	-33.006
-30.971	-53.728
-29.276	-78.159
-28.672	-103.26
-28.974	-126.35
-29.722	-145.5
-30.262	-161.64
-30.285	-179.07
-30.14	158.58
-30.39	131.75
-31.303	104.31
-32.637	81.636
-33.455	67.384
-32.641	56.555
-30.749	39.654
-29.056	16.039
-28.144	-11.074
-28.235	-39.37
-29.589	-66.972
-32.682	-89.945
-37.838	-94.348
-39.306	-63.573
-36.093	-60.276
-34.702	-73.359
-34.634	-85.154
-34.254	-92.87
-32.788	-106.85
-31.25	-134.11
-30.106	-173.85
-28.894	136.92
-27.168	85.556
-25.301	39.266
-23.818	-0.59072
-22.914	-35.612
-22.653	-67.228
-23.06	-95.48
-23.942	-119.08
-24.72	-138.04
-24.937	-156.64
-24.884	-179.83
-25.129	150.75
-26.084	114.8
-28.004	71.158
-30.845	15.821
-33.076	-56.478
-32.52	-131.11
-31.188	167.39
-30.723	112.88
-31.336	58.931
-32.954	0.86988
-35.115	-66.131
-36.332	-142.77
-35.714	142.51
-34.44	75.249
-33.042	10.851
-31.307	-52.63
-29.341	-112.79
-27.67	-167.46
-26.643	143.28
-26.337	97.833
-26.742	53.763
-27.936	7.97
-29.934	-43.586
-31.978	-105.12
-32.278	-170.24
-31.272	136.71
-30.621	96.435
-30.88	64.923
-32.086	41.69
-33.746	29.205
-34.639	26.338
-34.334	24.498
-33.514	20.419
-32.23	15.048
-30.329	5.55
-28.3	-11.191
-26.724	-34.486
-25.874	-62.432
-25.893	-93.473
-26.945	-125.75
-29.169	-155.89
-32.441	-176.99
-34.743	-178.43
-32.512	179.39
-29.104	154.73
-26.63	118.25
-25.246	77.467
-24.787	35.826
-25.078	-6.1006
-26.141	-49.903
-28.27	-99.01
-31.736	-161.2
-33.852	111.9
-31.305	34.278
-28.857	-20.438
-27.762	-66.818
-28.003	-110.88
-29.69	-154.86
-33.088	158.6
-38.465	97.978
-40.582	2.1058
-36.853	-64.272
-34.842	-104.8
-34.501	-134.3
-34.934	-154.65
-35.134	-168.41
-34.699	178.13
-34.066	160.97
-33.589	140.43
-33.17	117.08
-32.541	89.629
-31.531	56.291
-30.096	17.29
-28.354	-24.618
-26.6	-66.248
-25.108	-105.98
-24.025	-143.79
-23.438	179.64
-23.455	144.03
-24.128	110.28
-25.257	80.217
-26.286	54.659
-26.568	31.163
-25.974	4.7252
-25.024	-27.687
-24.351	-65.05
-24.23	-104.25
-24.531	-143.3
-25.019	177.34
-25.544	135.93
-26.047	91.433
-26.489	45.849
-26.756	4.0972
-26.647	-30.419
-26.022	-58.783
-24.987	-84.811
-23.952	-111.76
-23.408	-140.37
-23.65	-169.47
-24.783	161.97
-27.02	134.11
-31.196	107.66
-40.961	93.998
-39.649	-157.18
-32.141	-173.03
-29.093	163.04
-27.698	137.94
-27.321	112.52
-27.692	87.392
-28.59	62.536
-29.913	36.882
-31.807	8.8418
-34.748	-22.768
-39.74	-58.921
-50.607	-115.17
-46.879	82.79
-39.605	36.574
-35.861	-3.1225
-33.523	-42.831
-32.101	-82.648
-31.331	-122.97
-31.061	-166.01
-31.207	144.55
-31.393	86.296
-30.774	24.414
-29.345	-30.422
-27.924	-75.962
-27.041	-116.2
-27.149	-154.91
-29.031	166.39
-34.486	128.74
-57.738	-85.121
-33.625	-117.77
-28.566	-147.71
-26.264	-176.3
-25.54	157.28
-25.943	135.66
-26.742	121.34
-26.965	111.64
-26.62	98.999
-26.7	80.633
-28.154	58.742
-32.42	37.818
-45.574	78.641
-31.618	137.36
-25.779	113.24
-23.159	85.2
-22.336	57.589
-22.807	32.131
-24.398	9.9806
-27.18	-6.42
-31.024	-8.9927
-32.841	9.9063
-31.113	17.452
-30.166	9.5717
-30.854	0.49562
-32.754	1.3211
-33.071	20.393
-29.749	29.518
-26.758	19.486
-25.214	2.9345
-24.81	-13.754
-25.141	-27.95
-25.786	-38.421
-26.208	-46.2
-26.275	-56.036
-26.773	-71.3
-28.844	-90.023
-34.563	-103.4
-39.786	-19.909
-29.358	-15.561
-25.007	-41.695
-23.217	-73.718
-23.428	-110.37
-26.041	-154.06
-31.835	136.49
-29.878	24.493
-24.308	-32.352
-21.344	-74.185
-20.086	-114.4
-20.34	-156.03
-22.257	160.1
-26.142	111.65
-32.308	43.87
-33.496	-63.924
-29.608	-133.86
-27.949	174.27
-28.038	125.34
-29.432	76.25
-32.144	27.309
-37.223	-15.769
-46.173	6.5362
-36.193	26.123
-30.721	-10.261
-27.869	-50.939
-26.656	-92.828
-26.922	-135.48
-28.772	-178.67
-32.56	136.57
-39.615	83.431
-49.673	-44.519
-43.82	-153.02
-43.369	118.4
-38.695	17.96
-33.084	-46.257
-29.838	-96.865
-28.522	-144.92
-28.988	164.56
-31.269	104.16
-33.326	18.182
-30.265	-68.704
-26.748	-131.13
-24.629	175.12
-23.538	122.74
-23.028	69.114
-22.774	13.958
-22.713	-41.141
-23.059	-94.188
-24.099	-144.41
-26.109	167.36
-29.504	118.97
-35.321	66.316
-48.278	-17.833
-41.971	160.86
-35.138	89.236
-30.511	29.2
-27.097	-21.12
-24.876	-64.316
-23.661	-102.76
-23.304	-138.53
-23.827	-173.37
-25.427	151.96
-28.263	117.51
-32.176	80.181
-35.961	25.989
-34.815	-43.806
-30.765	-94.076
-27.755	-134.7
-26.217	-174.38
-25.997	144.19
-26.763	98.191
-27.855	43.781
-28.109	-17.033
-27.438	-72.522
-26.982	-117.39
-27.349	-154.28
-28.802	173.67
-31.884	145.93
-37.626	130.82
-42.988	161.52
-40.689	179.97
-40.577	174.86
-42.943	179.47
-43.216	-150.19
-39.297	-137.35
-36.441	-142.37
-34.78	-150.23
-33.605	-157.68
-32.647	-165.16
-31.852	-172.22
-30.943	-178.14
-29.525	175.22
-27.64	163.74
-25.875	145.09
-24.881	120.76
-24.928	94.613
-25.904	70.113
-27.638	50.086
-29.764	39.673
-30.318	42.6
-27.879	39.331
-25.17	20.439
-23.416	-5.8698
-22.624	-34.569
-22.723	-63.674
-23.798	-91.977
-26.103	-117.29
-29.944	-132.86
-33.49	-122.52
-31.797	-110.85
-29.626	-125.22
-29.14	-151.58
-30.607	173.7
-34.855	123.79
-38.446	24.143
-32.973	-52.522
-29.505	-95.435
-27.876	-132.03
-27.493	-168.76
-28.211	152.01
-29.892	109.21
-32.142	61.849
-34.43	9.521
-36.921	-47.131
-40.713	-116.66
-40.886	139.34
-34.951	71.564
-30.621	30.899
-27.631	-2.3979
-25.659	-34.4
-24.798	-66.778
-25.134	-98.733
-26.608	-129.95
-29.439	-162.87
-34.994	153.56
-41.193	35.547
-32.957	-46.099
-29.289	-88.884
-27.962	-126.79
-27.995	-165.14
-29.174	153.37
-31.539	107.52
-35.179	57.144
-40.925	0.43946
-52.108	-122.45
-40.438	116.51
-35.39	65.128
-34.051	22.454
-35.734	-14.898
-43.749	-48.368
-40.67	93.938
-30.835	59.144
-26.724	22.437
-25.217	-13.81
-25.496	-48.842
-27.47	-84.516
-32.119	-126.41
-41.524	140.83
-34.485	29.441
-30.715	-13.503
-30.253	-47.501
-32.245	-78.673
-37.774	-108.02
-68.648	-114.41
-40.47	20.258
-36.373	3.2317
-34.796	-8.0787
-33.672	-18.218
-33.13	-33.996
-34.38	-57.438
-39.705	-95.743
-41.354	127.08
-31.393	73.659
-26.785	41.635
-24.565	13.754
-23.819	-10.79
-24.137	-31.683
-25.292	-47.643
-26.81	-56.177
-27.702	-58.607
-27.786	-62.269
-27.793	-69.53
-27.984	-78.875
-28.289	-90.745
-28.903	-108.12
-30.46	-134.47
-33.39	-177.36
-34.537	108.83
-30.456	44.924
-27.095	2.788
-25.581	-31.824
-25.692	-62.183
-27.305	-87.75
-30.41	-103.81
-33.275	-99.15
-32.228	-95.004
-31.141	-113.29
-32.033	-142.52
-35.291	179.24
-41.9	112
-40.527	-7.4426
-36.036	-73.092
-34.947	-129.7
-35.21	168.12
-34.702	101.93
-33.571	42.112
-33.737	-12.786
-37.002	-76.696
-38.744	164.26
-31.093	85.123
-26.433	38.194
-23.721	-2.6193
-22.325	-42.982
-22.216	-85.14
-23.602	-129.81
-26.672	-178.67
-31.183	118.31
-32.658	28.961
-29.373	-40.717
-27.043	-91.355
-26.383	-136.81
-27.371	179.58
-30.207	136.24
-36.245	85.413
-42.069	-51.753
-32.226	-130.55
-27.679	-177.58
-25.567	137.74
-25.025	92.852
-25.583	46.318
-26.716	-4.3924
-27.552	-60.735
-27.319	-117.67
-26.589	-168.02
-26.43	149.42
-27.567	114.74
-30.359	94.076
-32.261	103.32
-28.615	108.18
-24.93	87.851
-22.689	57.635
-21.74	22.691
-22.043	-15.146
-23.643	-55.056
-26.78	-98.017
-32.457	-151.05
-39.335	94.627
-32.344	-3.3262
-28.448	-57.1
-26.658	-103.79
-25.855	-147.99
-25.635	168.38
-25.917	123.86
-26.721	77.537
-27.896	29.19
-28.968	-20.511
-29.43	-69.269
-29.321	-114.31
-29.197	-155.02
-29.697	167.82
-31.436	134.33
-35.334	107.58
-43.557	115.53
-38.283	174.93
-32.128	157.18
-29.301	127.52
-28.67	94.797
-30.244	62.655
-35.031	37.239
-44.24	83.823
-33.442	113.52
-28.113	86.471
-25.419	52.847
-24.308	16.731
-24.434	-20.612
-25.703	-59.318
-28.43	-101.2
-33.945	-153.06
-41.203	85.665
-32.884	-8.2441
-28.591	-56.977
-26.321	-100.37
-25.097	-143.86
-24.798	170.94
-25.516	124.9
-27.197	79.601
-29.803	34.52
-33.867	-15.697
-40.071	-100.62
-35.25	144.54
-29.465	85.49
-26.353	38.969
-24.787	-2.9983
-24.278	-42.935
-24.767	-82.782
-26.523	-124.19
-30.178	-170.12
-36.878	122.92
-36.975	4.4485
-31.892	-58.626
-29.844	-103.71
-29.779	-146.24
-31.273	168.41
-33.927	112.71
-35.377	40.864
-33.663	-22.417
-31.688	-65.151
-30.277	-96.474
-29.12	-123.33
-28.171	-150.6
-27.753	179.56
-28.163	147.81
-29.469	114.99
-31.855	80.036
-36.223	38.552
-45.768	-38.996
-41.061	-179.49
-36.73	125.15
-36.717	79.139
-40.48	26.495
-44.462	-97.592
-34.973	178.93
-30.091	131.98
-27.862	91.562
-27.313	54.358
-28.279	18.465
-31.552	-17.495
-42.089	-49.995
-37.751	78.72
-30.616	42.852
-28.468	4.7478
-28.763	-36.383
-31.344	-87.58
-34.38	-172.02
-30.379	101.09
-26.434	47.838
-24.533	4.9369
-24.178	-34.79
-25.085	-74.278
-27.183	-116.99
-30.402	-169.54
-33.278	120.14
-33.501	50.206
-33.793	0.55813
-36.238	-33.682
-42.871	-45.96
-42.727	30.954
-34.311	22.392
-30.486	-5.3621
-29.035	-35.206
-28.999	-63.451
-29.804	-90.656
-31.36	-119.86
-34.13	-156.55
-38.728	143.51
-38.548	45.962
-34.006	-14.606
-31.515	-53.898
-30.516	-85.403
-30.548	-111.48
-31.305	-130.18
-31.723	-137.87
-30.195	-142.79
-27.767	-157.43
-25.841	-179.31
-24.658	155.8
-24.206	129.6
-24.563	102.98
-25.882	77.358
-28.218	55.203
-31.379	38.983
-35.057	28.532
-40.144	19.434
-60.321	54.079
-39.023	151.81
-32.735	127.47
-30.084	99.574
-29.729	70.443
-31.887	41.222
-39.666	18.213
-39.379	135.73
-30.051	111.29
-26.365	77.846
-24.855	41.335
-24.765	0.96189
-25.737	-45.657
-27.144	-101.57
-27.785	-164.76
-27.452	134.88
-27.268	80.881
-27.746	29.004
-28.525	-25.379
-28.76	-82.212
-28.352	-134.96
-28.272	-179.28
-29.38	145.49
-32.032	122
-35.546	118.89
-36.458	133.26
-35.546	137.14
-35.663	139.46
-34.894	152.66
-31.694	157.18
-28.942	145.62
-27.827	127.2
-28.591	109.11
-31.27	101.23
-33.236	119.52
-30.282	132.79
-27.52	121.74
-26.736	101.11
-28.481	78.705
-34.267	71.023
-35.508	130.68
-29.226	130.51
-26.823	108.78
-27.147	82.114
-31.262	52.953
-57.302	169.51
-29.675	168.01
-24.626	138.18
-22.733	107.39
-23.012	73.46
-26.415	31.717
-35.741	-63.978
-26.783	-178.84
-21.732	139.89
-19.55	106.37
-18.963	73.923
-19.847	40.157
-22.627	3.1009
-28.546	-45.672
-33.535	-160.24
-27.053	125.81
-24.519	86.128
-24.648	54.404
-26.826	29.498
-31.064	18.142
-34.29	42.111
-30.749	54.128
-28.297	36.62
-28.005	12.194
-29.323	-11.209
-31.698	-28.06
-33.523	-32.912
-32.555	-38.531
-30.522	-59.748
-28.983	-90.381
-28.157	-124.54
-28.228	-159.66
-29.595	165.82
-33.009	132.63
-41.885	95.653
-40.776	-89.3
-31.259	-124.27
-26.967	-154.57
-24.749	175.62
-23.801	146.68
-23.639	117.72
-24.1	86.149
-25.293	48.74
-27.146	2.9274
-28.537	-50.181
-28.246	-99.945
-27.054	-138.59
-25.921	-169.43
-25.201	163.11
-24.979	136.64
-25.134	109.13
-25.478	76.831
-25.693	34.747
-24.976	-18.265
-23.032	-72.582
-20.999	-119.6
-19.593	-159.73
-18.926	163.58
-19.122	127.07
-20.516	88.636
-23.512	46.569
-28.23	-5.9786
-31.65	-84.137
-29.986	-150.9
-29.157	170.11
-30.495	150.73
-31.367	157.45
-28.279	162.22
-25.057	147.06
-23.248	122.23
-23.031	92.833
-24.66	61.931
-28.805	31.974
-40.099	10.451
-35.419	137.71
-28.162	108.19
-25.578	72.913
-25.206	35
-26.392	-5.4553
-28.705	-51.154
-31.336	-108.3
-32.214	-178.12
-30.8	114.26
-29.085	52.042
-27.785	-8.8828
-26.755	-66.218
-25.872	-115.94
-25.223	-158.03
-24.974	164.73
-25.482	129.67
-27.392	96.729
-31.486	72.122
-37.335	77.195
-36.728	109.6
-33.372	108.68
-31.415	96.192
-30.24	81.275
-29.432	64.299
-29.065	43.945
-29.501	19.386
-31.504	-10.681
-37.716	-52.596
-41.207	138.11
-30.627	81.604
-26.477	42.639
-24.486	5.3001
-23.967	-33.653
-25.281	-75.742
-29.751	-121.25
-44.476	153.49
-31.903	-0.47511
-25.886	-43.705
-22.934	-84.584
-21.642	-127.08
-21.819	-171.3
-23.403	143.1
-26.46	93.385
-31.297	27.415
-33.378	-78.317
-29.429	-161.37
-27.065	140.03
-26.094	88.769
-25.712	40.208
-25.625	-7.0311
-26.023	-51.891
-27.231	-90.156
-28.811	-115.17
-28.879	-128.03
-27.024	-145.69
-25.144	-174.64
-24.24	148.38
-24.533	105.83
-25.811	57.679
-27.301	1.8931
-27.733	-58.706
-27.129	-113.65
-26.742	-159
-27.264	163.47
-28.826	132.43
-31.313	107.44
-34.507	84.831
-39.292	45.751
-39.094	-60.876
-30.371	-120.39
-24.939	-159.39
-21.616	163.68
-19.822	127.04
-19.227	90.836
-19.624	54.562
-21.041	16.703
-23.826	-25.337
-28.578	-79.049
-32.52	-169.07
-28.821	111.48
-25.661	63.279
-24.149	23.22
-23.868	-13.731
-24.444	-48.124
-25.526	-80.988
-27.036	-114.9
-29.386	-153.25
-33.513	159.17
-39.432	82.121
-37.468	-15.393
-33.59	-68.941
-31.843	-110.9
-32.23	-153.51
-35.9	156.46
-43.288	53.42
-35.491	-47.627
-30.649	-90.8
-28.408	-125.96
-27.961	-158.17
-29.146	174.84
-31.34	159.28
-32.371	156.89
-31.027	149.19
-29.399	127.05
-28.426	95.69
-27.924	59.284
-27.544	20.472
-27.256	-18.275
-27.436	-54.064
-28.421	-83.017
-29.99	-101.36
-31.331	-107.55
-31.333	-105.72
-29.827	-105.99
-27.88	-113.6
-26.291	-126.84
-25.264	-143.5
-24.905	-163.14
-25.608	174.18
-28.212	150.79
-34.199	137.67
-40.044	-166.62
-33.188	-147.14
-30.083	-164.39
-29.753	169.98
-32.684	138.17
-43.041	75.581
-35.121	-62.868
-28.255	-95.795
-24.705	-121.89
-22.797	-147.22
-22.143	-171.96
-22.572	164.53
-24.162	142.84
-27.477	127
-32.003	138.94
-29.385	163.46
-25.846	149.52
-24.312	122.36
-24.276	87.74
-25.698	43.826
-28.47	-14.899
-30.262	-92.152
-29.018	-164.57
-27.443	137.09
-26.521	83.061
-26.216	29.6
-26.675	-21.676
-28.441	-68.31
-33.059	-109.62
-60.863	-80.889
-32.371	-9.2014
-27.149	-42.047
-25.54	-71.021
-26.077	-91.974
-27.661	-96.45
-26.695	-85.716
-23.416	-91.15
-21.378	-110.88
-21.248	-133.89
-23.072	-152.26
-26.324	-152.38
-25.867	-129.99
-22.026	-132.38
-19.546	-153.5
-18.836	177.15
-20.088	142.17
-23.939	99.641
-30.772	25.29
-28.038	-77.227
-24.146	-124.19
-23.164	-156.78
-24.407	177.89
-27.78	165.57
-30.649	-175.95
-27.871	-161.51
-25.499	-171.88
-24.885	172.79
-25.222	160.37
-25.491	151.05
-25.322	138.9
-25.396	119.47
-26.562	93.18
-29.514	62.254
-35.612	30.091
-50.913	72.115
-36.477	99.801
-30.873	56.146
-27.37	12.343
-25.009	-27.228
-23.738	-62.768
-23.805	-94.99
-25.783	-121.73
-30.445	-128.71
-30.736	-88.638
-25.007	-87.468
-21.526	-107.41
-19.737	-132.71
-19.282	-160.14
-20.068	171.83
-22.12	143.96
-25.719	116.2
-31.92	87.698
-46.264	47.217
-43.896	-120.7
-42.592	-121.37
-37.939	-77.76
-30.395	-81.585
-25.814	-102.91
-23.196	-129.56
-22.095	-159.52
-22.501	167.28
-24.689	130.14
-29.039	84.677
-33.954	12.749
-32.756	-60.97
-31.403	-97.518
-32.154	-106.48
-30.002	-90.957
-25.102	-97.788
-21.811	-119.97
-20.018	-147.16
-19.444	-178.25
-20.314	145.46
-23.185	101.69
-27.946	39.419
-28.433	-48.067
-24.958	-105.62
-22.999	-146.68
-22.9	174.39
-24.874	132.63
-28.935	79.508
-30.931	-1.2871
-27.344	-62.484
-24.514	-98.219
-23.124	-124.33
-22.68	-143.99
-22.449	-158.46
-21.92	-172.41
-21.381	169.35
-21.351	145.42
-22.093	114.96
-23.558	74.401
-24.796	18.268
-24.064	-44.322
-22.712	-94.48
-22.457	-130.99
-23.449	-156.68
-25.456	-170.74
-27.173	-168.18
-26.079	-162.82
-24.639	-173.76
-25.154	169.03
-28.136	157.85
-32.611	-178.31
-27.965	-144.48
-23.393	-155.31
-21.468	-175.85
-21.378	164.26
-22.517	149.68
-24.015	143.95
-24.504	143.33
-24.33	136.33
-25.234	122.2
-28.864	108.62
-37.134	148.51
-27.669	-167.34
-22.535	172.63
-20.539	146.75
-20.44	120.3
-22.146	94.61
-26.668	75.387
-33.212	108.16
-27.177	132.63
-23.945	111.22
-23.352	81.59
-24.724	45.722
-28.081	-3.3312
-30.574	-82.483
-27.41	-153.19
-24.634	162.02
-23.614	124.5
-24.392	87.032
-27.425	44.044
-32.717	-27.165
-29.767	-125.59
-24.739	-177.13
-22.19	143.39
-21.602	106
-22.822	68.716
-26.091	28.574
-32.395	-29.466
-33.792	-142.62
-28.892	155.27
-27.559	115.62
-29.286	81.917
-36.399	54.444
-38.479	177.62
-28.54	153.74
-25.361	124.36
-24.701	98.198
-25.573	78.358
-27.037	69.676
-26.908	69.389
-25.381	58.407
-24.84	36.414
-26.028	10.724
-29.749	-13.604
-39.495	-3.3411
-32.01	61.209
-26.26	35.61
-24.087	1.9504
-23.864	-33.177
-25.274	-68.011
-28.622	-98.919
-34.35	-108.55
-33.701	-79.918
-28.533	-99.048
-25.538	-138.14
-24.029	177.39
-23.524	132.65
-23.723	90.156
-24.596	50.753
-26.528	15.899
-30.129	-4.9763
-31.482	7.9807
-27.371	2.4086
-24.503	-23.832
-23.117	-54.544
-22.885	-85.952
-23.813	-115.73
-25.874	-139.14
-27.964	-149.13
-27.672	-154.41
-26.352	-173.78
-26.121	156.41
-27.382	122.5
-30.263	86.851
-35.579	50.484
-47.444	36.988
-41.875	89.822
-35.507	30.811
-30.602	-31.216
-26.441	-83.232
-23.25	-128.88
-21.07	-172.64
-20.025	143.42
-20.191	99.397
-21.413	55.393
-23.372	9.5556
-25.444	-41.291
-26.485	-95.583
-25.981	-143.06
-24.619	-179.24
-22.931	150.81
-21.34	121.38
-20.331	89.586
-20.419	54.786
-22.22	17.283
-27.054	-24.534
-40.263	-130.35
-27.561	108.67
-22.437	65.604
-20.485	25.692
-20.465	-14.499
-22.167	-56.039
-25.759	-101.32
-31.858	-159.85
-37.525	96.231
-35.713	-1.6752
-34.796	-88.444
-31.142	-174.08
-26.943	126.16
-24.478	80.233
-23.775	39.627
-25.054	1.9649
-29.244	-29.032
-37.474	-15.843
-31.865	21.448
-27.503	-5.706
-25.92	-46.518
-25.835	-97.616
-26.134	-157.23
-25.895	144.11
-25.596	94.59
-26.121	52.897
-28.234	15.243
-33.323	-20.238
-47.995	-62.647
-41.174	128.32
-34.569	123.38
-29.025	117.76
-24.366	100.15
-21.288	74.714
-19.908	46.629
-20.066	20.261
-21.463	-0.72894
-23.491	-11.877
-24.405	-13.226
-23.533	-21.178
-23.014	-43.469
-24.133	-77.071
-27.31	-125.95
-29.75	152.51
-26.337	78.689
-23.536	32.015
-22.613	-5.8128
-23.325	-40.571
-25.681	-73.938
-29.854	-107.07
-35.575	-148.27
-37.167	141.96
-31.635	92.142
-26.889	57.86
-23.885	24.204
-22.495	-11.2
-22.66	-48.9
-24.555	-90.34
-28.856	-141.23
-35.467	126.77
-31.714	14.925
-28.057	-52.177
-26.297	-114.4
-24.79	-175.5
-23.274	128.98
-22.36	79.596
-22.606	33.292
-24.619	-14.395
-29.517	-74.952
-32.791	170.74
-27.46	91.218
-25.507	42.673
-26.79	1.0938
-32.906	-38.487
-40.715	109.24
-27.982	68.734
-24.494	30.418
-24.262	-9.1496
-27.357	-53.104
-37.782	-136.24
-29.283	79.713
-23.769	29.68
-21.972	-14.82
-22.181	-61.737
-23.681	-117.97
-24.769	170.67
-23.653	100.19
-22.548	45.521
-22.945	2.828
-25.193	-29.606
-29.29	-40.335
-28.534	-20.777
-23.924	-37.425
-21.349	-73.1
-20.262	-113.9
-20.037	-156.85
-20.553	158.21
-22.317	110.86
-26.862	59.38
-39.15	-45.62
-28.096	-175.57
-23.059	139.44
-21.419	101.34
-22.401	67.372
-27.069	47.063
-30.067	97.949
-22.037	101.32
-17.846	74.942
-16.002	43.327
-16.039	11.06
-17.851	-17.792
-21.33	-37.274
-25.171	-35.015
-24.683	-23.924
-22.969	-38.791
-23.392	-69.165
-26.786	-111.21
-33.515	165.21
-28.716	58.059
-24.629	6.5134
-23.769	-36.278
-25.337	-80.454
-29.408	-139.93
-30.707	117.65
-25.94	42.25
-23.841	-10.171
-24.36	-57.524
-26.904	-108.2
-30.07	-178.21
-28.816	99.641
-26.086	41.169
-25.449	-4.538
-27.262	-44.265
-32.27	-79.78
-48.86	-107.74
-38.159	31.323
-34.926	3.6085
-37.96	-6.6101
-37.633	41.957
-30.646	41.443
-27.186	19.373
-26.242	-4.6543
-27.268	-22.143
-28.64	-22.877
-27.071	-18.411
-24.424	-31.472
-22.97	-56.914
-23.212	-89.006
-25.639	-125.56
-31.888	-169.4
-41.248	42.482
-29.884	-35.094
-25.934	-79.767
-24.385	-125.53
-24.156	-175.61
-24.712	130.76
-25.672	77.548
-27.094	28.81
-29.67	-14.41
-35.564	-51.104
-45.55	39.796
-32.284	26.301
-28.993	-12.484
-29.105	-50.625
-31.979	-88.789
-40.923	-144.29
-36.102	49.3
-28.023	-1.5611
-24.675	-46.662
-23.633	-90.06
-23.755	-131.93
-24.255	-174.67
-24.598	139.01
-24.477	88.634
-23.992	37.052
-23.505	-12.042
-23.179	-57.408
-22.996	-100.53
-23.003	-143.7
-23.344	171.67
-24.12	125.26
-25.279	76.747
-26.579	24.557
-27.653	-33.313
-28.164	-95.704
-28.401	-156.97
-29.232	147.03
-31.52	94.874
-36.963	35.228
-40.521	-104.88
-31.599	175.93
-27.73	126.73
-26.388	83.701
-26.585	43.15
-28.162	1.5957
-31.752	-45.277
-38.992	-108.95
-43.639	125.12
-40.005	48.059
-40.183	-10.016
-41.21	-84.722
-38.523	-160.81
-36.02	148.38
-36.24	117.76
-37.459	120.24
-33.001	130.92
-28.119	112.32
-25.35	83.7
-24.411	54.033
-25.047	27.628
-27.187	10.418
-29.123	15.899
-26.402	23.113
-23.184	6.4192
-21.474	-19.595
-21.089	-49.311
-22.3	-82.439
-26.719	-118.22
-48.25	-111.06
-28.329	-20.482
-23.403	-51.914
-21.567	-84.488
-21.674	-119.91
-24.46	-159.85
-33.425	145.88
-31.763	-20.292
-24.143	-64.461
-20.88	-98.312
-19.504	-132.06
-19.809	-166.73
-21.861	160.16
-25.53	131.58
-30.656	109.78
-36.473	97.718
-39.554	79.094
-36.937	27.6
-31.571	-16.879
-27.547	-48.529
-24.924	-74.163
-23.259	-96.901
-22.331	-118.51
-22.131	-139.95
-22.777	-161.41
-24.471	177.39
-27.64	156.48
-33.821	133.93
-49.888	3.8331
-33.121	-64.8
-28.18	-82.112
-25.576	-94.3
-23.679	-103.64
-21.962	-112.99
-20.452	-124.4
-19.358	-138.44
-18.954	-154.64
-19.558	-171.1
-21.405	176.53
-24.178	176.97
-24.993	-163.79
-22.185	-154.28
-19.388	-163.31
-17.788	178.2
-17.626	154.7
-19.345	129.01
-24.244	106.19
-36.271	151.83
-24.42	-164.2
-19.676	169.55
-18.065	136.35
-18.389	98.608
-20.145	54.123
-22.265	-2.6329
-22.52	-67.317
-21.526	-121.82
-21.676	-164.97
-24.14	159.67
-31.092	137.48
-34.846	-134.45
-26.161	-143.49
-23.943	-171.81
-25.181	160.47
-30.272	140.82
-40.063	-158.87
-29.64	-124.81
-25.969	-139.66
-25.37	-149.67
-24.821	-145.9
-22.217	-143.94
-19.419	-154.8
-17.66	-173.72
-17.322	164.33
-18.485	145.48
-20.383	136.92
-21.014	137.68
-19.957	131.48
-19.207	112.22
-20.124	84.115
-23.765	51.393
-34.195	13.058
-32.255	170.96
-24.985	131.21
-23.017	91.239
-23.484	47.43
-25.802	-5.1847
-28.868	-79.622
-27.96	-171.68
-24.624	116.62
-22.107	59.512
-20.33	10.096
-19.123	-34.271
-18.633	-75.374
-19.231	-113.52
-21.187	-146.7
-24.492	-171.76
-28.997	175.5
-33.906	-175.73
-35.2	-144.44
-32.062	-129.43
-28.919	-138.35
-27.366	-162.46
-27.813	160.54
-29.649	101.72
-27.855	23.623
-23.387	-30.763
-20.176	-69.655
-18.446	-103.96
-18.292	-136.64
-20.083	-165.76
-24.226	176.97
-28.801	-162.86
-25.4	-139.09
-22.013	-150.89
-20.911	-171.97
-21.764	169.32
-23.411	162.13
-23.454	163.57
-21.87	155.87
-20.604	135.8
-20.473	107.83
-21.64	74.809
-24.049	36.296
-27.394	-13.049
-29.816	-78.903
-29.454	-141.13
-28.757	175.62
-28.664	144.91
-28.816	119.73
-29.112	94.121
-30.032	63.962
-32.522	27.731
-38.303	-20.12
-43.305	-150.08
-33.772	136.2
-28.795	94.096
-25.976	55.032
-24.682	16.89
-24.701	-20.009
-26.021	-56.229
-29.093	-94.626
-35.508	-149.35
-36.306	87.992
-29.26	30.511
-25.723	-5.3887
-24.129	-37.473
-24.103	-68.299
-25.823	-97.249
-30.088	-119.58
-37.281	-99.355
-32.147	-67.295
-29.063	-93.981
-30.177	-136.52
-34.095	145.76
-28.85	48.47
-22.949	-2.4234
-19.634	-43.562
-18.318	-82.369
-18.656	-118.89
-20.452	-153.24
-24.154	173.59
-32.924	147.14
-34.066	-114.11
-26.556	-147.15
-24.722	166.59
-24.452	113.75
-23.939	54.764
-22.777	-3.9888
-22.088	-57.722
-22.826	-106.49
-25.53	-153.04
-31.875	152.09
-36.778	4.1713
-28.2	-74.322
-25.607	-127.96
-25.686	176.67
-26.27	110.13
-24.57	36.93
-21.701	-25.553
-20.136	-78.485
-20.421	-124.76
-22.426	-165.98
-26.701	154.67
-38.741	105.5
-32.098	-91.14
-25.388	-135.02
-23.136	-175.77
-22.882	144.78
-24.012	106.35
-26.481	70.484
-30.118	43.992
-32.629	35.383
-31.508	22.938
-29.962	-7.2669
-29.819	-46.179
-31.971	-87.883
-39.52	-130.79
-39.968	17.803
-29.117	-24.038
-24.165	-64.628
-21.468	-106.17
-20.423	-146.82
-20.595	175.68
-21.636	142.03
-23.497	112.73
-26.27	92.581
-28.083	90.123
-26.707	84.074
-25.278	63.743
-24.728	38.471
-24.855	11.361
-25.585	-17.638
-26.976	-49.486
-28.965	-86.529
-30.815	-134.53
-30.459	165.91
-27.721	111.23
-25.028	65.041
-23.52	22.134
-23.529	-20.126
-25.237	-64.367
-29.089	-120.82
-31.288	139.59
-25.769	59.121
-22.199	7.3291
-20.932	-36.458
-21.29	-76.161
-23.025	-114.25
-26.7	-153.93
-35.779	156.61
-36.802	-36.866
-29.201	-88.8
-27.258	-131.2
-27.231	-170.9
-28.33	151.43
-30.524	120.39
-32.596	110.97
-29.858	110.67
-25.689	89.223
-22.654	59.26
-20.707	27.4
-19.754	-4.1675
-19.711	-33.609
-20.337	-59.22
-21.208	-80.564
-21.926	-99.824
-22.578	-120.71
-23.656	-144.45
-25.527	-170.08
-28.545	163.31
-33.617	138.4
-42.483	142.5
-39.927	-178.17
-36.909	149.82
-36.912	100.41
-37.935	43.089
-39.887	-12.426
-46.425	-48.574
-44.162	33.135
-34.432	5.1742
-29.569	-34.452
-26.899	-78.312
-26.12	-126.66
-27.321	-179.83
-30.237	116.5
-31.902	28.766
-28.631	-53.098
-25.373	-113.82
-23.552	-166.68
-22.818	143.31
-22.669	93.195
-22.669	39.781
-22.529	-18.631
-22.375	-78.845
-22.769	-133.44
-24.079	-176.63
-26.361	155.46
-28.441	151.52
-26.251	157.46
-22.694	141.51
-20.946	115.38
-21.055	91.679
-22.107	78.342
-22.201	76.612
-20.253	72.004
-17.974	54.794
-16.823	28.379
-17.431	-1.2335
-20.01	-28.029
-25.064	-44.009
-30.805	-9.5757
-24.77	12.315
-21.386	-12.365
-21.572	-44.565
-24.794	-72.754
-32.121	-84.044
-33.789	-9.1418
-25.981	-19.877
-23.428	-60.557
-25.198	-115.43
-29.672	163.55
-26.84	69.266
-22.234	14.328
-19.508	-32.129
-18.734	-80.346
-19.948	-129.49
-22.532	-178.5
-25.825	128.77
-29.725	64.824
-34.012	-31.472
-30.282	-150.07
-24.962	138.22
-21.911	85.96
-20.203	40.67
-19.535	-4.0443
-20.179	-51.763
-22.411	-102.95
-25.822	-157.39
-29.283	145.76
-32.753	95.998
-39.365	88.59
-31.806	130.41
-24.773	99.2
-21.487	61.09
-20.205	23.604
-20.296	-14.335
-21.865	-56.725
-25.639	-113.34
-28.731	148.23
-24.314	65.152
-21.229	14.698
-19.891	-27.499
-19.684	-68.47
-20.415	-111.14
-21.981	-156.81
-24.154	153.73
-26.649	99.107
-29.286	35.65
-30.915	-43.274
-28.944	-122.52
-25.659	179.63
-22.98	135.35
-21.019	95.866
-19.924	56.003
-20.109	14.221
-21.704	-28.112
-24.216	-72.081
-26.638	-123.55
-27.256	176.26
-26.311	118.58
-26.574	66.889
-30.354	21.424
-46.144	-23.576
-32.761	135.39
-25.879	103.02
-22.565	69.375
-21.465	33.174
-22.607	-3.3949
-26.378	-38.479
-36.774	-75.102
-33.788	77.201
-26.219	38.316
-24.133	-0.11098
-24.588	-38.093
-26.838	-77.751
-30.802	-126.27
-35.195	161.22
-35.991	80.955
-38.865	16.677
-41.719	-144.5
-29.007	146.4
-23.159	103.75
-20.076	64.975
-18.671	28.681
-18.438	-6.2197
-19.285	-41.465
-21.503	-78.495
-25.611	-119.3
-31.86	-177.11
-32.868	90.451
-28.538	37.936
-25.854	4.7516
-24.673	-25.068
-25.081	-53.855
-27.343	-78.84
-32.014	-92.259
-37.111	-57.31
-31.336	-31.266
-27.327	-46.575
-25.897	-69.303
-26.69	-90.064
-29.489	-94.244
-28.655	-69.828
-23.712	-73.208
-20.349	-95.576
-18.523	-123.88
-17.951	-155.26
-18.701	170.72
-21.154	133.63
-26.217	88.378
-32.933	-5.3259
-27.397	-94.049
-23.985	-133.68
-23.191	-160.18
-23.573	-173.7
-22.772	-177.09
-20.496	171.33
-18.835	148.14
-18.565	118.97
-19.845	86.443
-23.138	48.845
-29.989	-9.8139
-30.388	-131.94
-25.191	170.82
-24.081	135.98
-25.872	114.21
-28.911	124.86
-24.502	144.35
-19.833	123.01
-17.942	89.116
-18.207	52.714
-20.222	14.596
-24.347	-31.361
-30.35	-114.82
-26.793	143.09
-23.164	86.514
-22.198	38.201
-22.936	-12.864
-24.264	-73.001
-24.425	-138.49
-23.647	165.79
-23.696	122.99
-25.594	92.226
-29.366	89.218
-26.767	110.57
-22.382	92.842
-20.422	62.831
-20.074	29.616
-20.98	-7.961
-23.321	-56.08
-26.536	-128.6
-26.033	145.4
-24.229	87.348
-24.023	47.557
-25.186	17.395
-27.384	-4.4454
-29.587	-16.573
-30.135	-31.079
-30.079	-67.357
-29.209	-125.67
-25.942	176.25
-22.265	131.77
-19.361	94.814
-17.375	60.364
-16.404	26.624
-16.558	-5.746
-17.782	-34.834
-19.883	-58.958
-22.669	-76.41
-25.707	-84.08
-27.697	-82.052
-28.114	-81.962
-28.509	-88.311
-29.563	-94.631
-30.655	-95.848
-30.759	-95.921
-30.49	-104.09
-31.459	-120.54
-35.314	-142.71
-51.595	137.78
-33.791	10.035
-26.898	-16.126
-23.048	-39.828
-20.635	-62.244
-19.063	-83.412
-18.04	-103.81
-17.475	-124.16
-17.474	-144.81
-18.279	-164.63
-19.982	-179.77
-21.895	174.72
-22.565	176.09
-21.955	173.26
-21.276	162.97
-21.264	147.23
-22.516	128.03
-26.325	109.66
-35.973	135.21
-27.531	-164.35
-21.982	179.23
-19.307	156.33
-18.107	131.44
-18.158	105.58
-19.577	81.302
-22.3	64.181
-25.146	62.02
-25.291	67.083
-23.789	56.144
-23.225	30.361
-24.323	-4.0857
-27.109	-45.9
-30.857	-101.79
-32.094	-173.95
-30.185	128.43
-28.569	87.94
-27.626	55.917
-26.772	28.2
-25.538	1.0105
-23.976	-28.604
-22.458	-60.617
-21.222	-93.126
-20.313	-124.8
-19.764	-155.42
-19.695	175.17
-20.187	148.37
-20.972	126.23
-21.421	108.25
-21.156	90.064
-20.427	67.127
-19.766	37.532
-19.68	1.6691
-20.469	-38.466
-22.088	-81.152
-24.272	-127.09
-26.48	-179.46
-27.532	121.26
-26.721	64.965
-25.177	19.141
-23.859	-18.201
-23.028	-50.211
-22.743	-78.707
-23.052	-104.4
-24.041	-126.96
-25.787	-144.17
-27.788	-150.55
-27.892	-147.91
-26.044	-156.51
-24.606	-179.96
-24.299	145.73
-24.956	99.457
-25.246	38.555
-23.446	-25.346
-20.946	-78.878
-19.325	-125.41
-19.064	-169.62
-20.373	145.78
-23.49	95.339
-27.567	17.582
-24.525	-78.998
-19.823	-142.16
-17.46	165.14
-16.883	117.43
-17.118	73.814
-17.443	31.817
-17.58	-11.423
-17.749	-58.701
-18.715	-112.24
-21.429	-172.63
-25.314	113.43
-25.242	25.794
-21.723	-37.933
-18.982	-86.464
-17.628	-130.38
-17.611	-170.72
-18.547	153.65
-19.987	123.16
-21.476	98.467
-22.273	79.14
-21.899	59.966
-20.877	36.619
-19.818	9.2748
-19.124	-21.348
-19.237	-54.648
-20.71	-88.968
-24.267	-121.73
-32.805	-147.36
-34.374	-28.616
-25.281	-54.331
-22.608	-88.231
-22.625	-120.08
-24.335	-148.03
-27.705	-172.16
-34.28	173.79
-39.082	-121.11
-31.72	-123.31
-30.32	-158.98
-32.932	152.66
-36.842	65.011
-32.04	-22.1
-28.219	-72.753
-27.001	-119.06
-27.779	-174.48
-27.896	107.6
-23.844	33.908
-19.88	-18.413
-17.554	-61.312
-16.713	-99.452
-17.159	-133.98
-18.889	-164.71
-22.188	171.5
-26.815	169.13
-26.46	-170
-23.069	178.93
-21.408	150.82
-21.305	116.59
-22.528	78.775
-25.112	38.584
-29.338	-0.50691
-35.252	-22.993
-35.838	-12.137
-31.187	-35.299
-27.835	-75.437
-25.588	-119.42
-24.144	-165.7
-23.406	145.26
-23.399	93.633
-24.211	40.885
-25.999	-11.761
-29.237	-67.17
-34.32	-145.99
-31.64	105.13
-26.057	45.341
-22.835	3.2296
-21.133	-31.734
-20.418	-61.989
-20.477	-88.46
-21.253	-110.32
-22.384	-125.19
-23.079	-133.8
-23.011	-140.99
-22.399	-150.39
-21.584	-164.5
-21.237	174.76
-22.335	149.51
-25.537	125.11
-32.83	105.7
-37.817	-120.71
-25.403	-137.84
-20.278	-170
-17.994	151.14
-17.952	109.16
-19.446	64.104
-21.388	9.3599
-21.442	-56.451
-19.256	-114.52
-17.327	-160.34
-16.64	160.36
-17.516	125.2
-20.386	96.96
-25.084	89.108
-26.379	109.36
-23.892	108.18
-22.607	89.465
-23.128	62.914
-26.471	31.163
-37.535	1.1213
-35.22	138.1
-29.072	112.67
-27.758	88.893
-28.494	68.683
-30.58	55.893
-32.39	54.742
-32.373	50.128
-32.92	31.247
-35.802	6.8209
-42.11	-5.4899
-43.24	35.975
-36.663	17.752
-32.598	-24.319
-30.326	-67.944
-30.039	-107.14
-32.778	-139.58
-46.975	-116.91
-29.742	-43.007
-22.456	-72.701
-18.91	-104.74
-17.442	-134.3
-17.353	-160.19
-18.56	177.92
-21.505	165.9
-23.967	-176.28
-20.756	-163.2
-17.917	-173.9
-16.501	169.08
-16.225	149.97
-17.289	131.4
-19.702	120.26
-22.051	122.87
-22.634	130.71
-22.282	132.61
-22.178	130.02
-22.494	127.44
-22.883	126.42
-23.259	125.73
-23.842	126.27
-24.332	131.94
-23.403	140.27
-21.427	138.58
-20.136	127.16
-20.054	111.73
-21.436	96.21
-24.693	89.014
-27.412	108.65
-25.006	122.49
-22.977	111.03
-23.005	88.394
-25.932	56.503
-34.819	-11.174
-28.799	-137.36
-22.981	-176.04
-20.593	154.28
-20.384	125.19
-22.814	96.228
-30.735	72.725
-33.035	-155.38
-23.217	-173.57
-19.709	161.6
-18.71	137
-19.477	115.97
-21.622	101.74
-24.799	100.65
-26.262	121.53
-23.501	131.99
-21.394	121.5
-21.095	106.55
-22.055	94.835
-23.589	90.453
-24.366	94.049
-23.701	94.09
-23.185	85.007
-23.669	71.954
-25.36	58.685
-28.773	50.432
-33.414	67.534
-32.137	100.23
-29.523	104.55
-28.07	103.09
-26.595	101.48
-24.711	95.232
-23.103	81.891
-22.326	64.589
-22.345	47.032
-22.914	31.315
-23.707	19.005
-24.073	10.202
-23.54	-0.66739
-22.816	-18.724
-22.661	-42.628
-23.302	-70.475
-24.883	-102.81
-27.604	-144.39
-30.376	150.92
-28.307	75.722
-24.714	26.241
-22.499	-7.9064
-21.243	-33.308
-20.31	-53.431
-19.396	-71.659
-18.54	-90.769
-18.013	-112.32
-18.197	-136.35
-19.471	-161.3
-22.183	175.46
-27.039	158.94
-35.044	179.66
-30.767	-128.97
-26.313	-140.72
-24.991	-163.8
-25.972	170.75
-29.68	145.05
-42.041	119.55
-33.878	-88.887
-26.821	-117.36
-24.328	-145.87
-24.113	-172.07
-25.618	165.9
-29.054	152.53
-33.526	171.44
-30.051	-160.27
-26.442	-170.82
-25.228	170.73
-25.733	154.5
-27.361	149.09
-27.193	159.04
-24.354	157.14
-22.041	141.37
-20.619	119.95
-19.981	93.696
-20.605	61.418
-23.461	24.595
-29.468	-17.814
-36.278	-113.18
-29.22	171.82
-24.453	139.32
-21.764	110.55
-20.884	82.791
-21.426	59.965
-22.687	43.624
-24.257	33.485
-25.663	30.641
-25.842	31.301
-25.239	24.707
-25.286	10.459
-26.786	-9.1206
-31.709	-35.258
-44.597	154.29
-27.941	102.17
-22.927	76.065
-20.174	53.132
-18.349	30.649
-17.156	7.0179
-16.552	-17.635
-16.294	-42.72
-16.087	-69.604
-15.964	-100.49
-16.248	-135.16
-17.084	-170.15
-18.289	157.89
-19.79	130.2
-21.942	108.04
-25.294	99.773
-26.306	122.08
-22.188	127.22
-19.244	112.6
-17.778	94.801
-17.291	78.635
-17.334	66.529
-17.261	58.753
-16.624	51.615
-15.67	40.812
-15.023	25.311
-15.163	7.7484
-15.971	-7.8293
-16.819	-20.686
-17.286	-34.863
-17.643	-56.223
-18.705	-88.755
-20.861	-133.27
-22.537	171.94
-21.89	120.03
-20.341	80.172
-19.405	47.322
-19.779	18.65
-21.622	-2.0066
-23.739	-8.4185
-23.826	-8.8841
-22.86	-22.784
-23.313	-50.471
-26.511	-87.176
-34.152	-146.63
-33.018	84.667
-26.83	29.732
-24.296	-13.25
-23.703	-57.229
-24.118	-104.37
-24.724	-154.57
-25.433	155.33
-27.561	110.98
-33.693	92.797
-31.622	145.36
-24.364	129.6
-20.297	97.565
-18.044	58.619
-17.503	13.999
-18.395	-34.189
-19.642	-86.15
-19.9	-141.44
-19.015	165.42
-18.218	117.39
-18.456	74.446
-19.908	36.488
-22.593	2.1292
-27.228	-29.918
-37.523	-47.023
-35.742	41.137
-29.42	11.787
-26.821	-29.341
-25.031	-74.651
-23.567	-120.7
-22.786	-162.94
-22.822	161.86
-23.501	133.63
-24.842	111.15
-27.163	97.278
-28.828	104.55
-26.119	106.63
-23.769	86.86
-22.766	60.048
-22.67	28.839
-23.469	-7.59
-25.361	-49.126
-28.498	-94.138
-33.538	-141.84
-48.106	140.37
-34.63	-33.618
-27.631	-78.71
-24.316	-116.59
-22.727	-148.82
-22.127	-176.55
-22.277	159.15
-23.105	139.45
-23.857	126.49
-23.692	113.28
-23.348	93.532
-23.38	67.308
-23.935	33.401
-25.227	-11.578
-27.532	-70.388
-30.498	-139.35
-33.559	149.4
-36.246	69.127
-34.496	-20.033
-30.008	-85.764
-26.531	-139.26
-24.421	169.13
-23.414	118.09
-22.983	69.785
-22.758	26.67
-22.752	-9.2676
-22.923	-36.042
-22.622	-54.302
-21.458	-71.611
-20.194	-94.067
-19.627	-122.4
-20.278	-157.17
-22.681	157
-25.739	82.678
-22.788	-1.505
-18.84	-54.505
-16.823	-96.159
-16.624	-134.41
-18.308	-171.09
-22.6	152.72
-34.977	110.53
-29.144	-93.092
-23.174	-135.4
-22.276	179.43
-23.937	123.59
-24.907	46.618
-22.111	-23.836
-19.717	-74.167
-19.263	-116.1
-20.99	-155.17
-25.98	161.88
-35.012	44.606
-24.573	-46.978
-20.207	-87.762
-18.927	-124.66
-19.916	-162.37
-23.524	152.4
-28.931	66.972
-24.259	-24.052
-20.459	-66.657
-19.066	-95.416
-19.008	-116.16
-19.512	-129.67
-19.794	-138.17
-19.624	-147.04
-19.494	-159.37
-19.907	-174.75
-21.297	168.64
-24.163	156.09
-27.81	162.44
-27.191	-178.11
-24.382	176.55
-22.603	155.6
-21.886	126.17
-21.992	89.869
-22.6	46.811
-23.356	-3.532
-24.108	-63.03
-24.421	-136.06
-22.442	144.63
-18.958	80.597
-15.992	31.358
-13.945	-10.618
-12.892	-49.715
-12.961	-87.659
-14.264	-125.38
-17.03	-166.24
-21.68	135.57
-22.323	36.034
-17.399	-30.814
-14.855	-74.002
-14.171	-107.86
-14.563	-135.83
-15.673	-159.37
-17.193	-178.28
-18.522	165.66
-19.578	146.13
-20.939	117.74
-22.823	73.288
-23.314	4.8769
-20.623	-62.649
-18.343	-112.68
-17.57	-151.89
-18.067	174.37
-20.128	142.93
-25.522	116.41
-35.489	-177.98
-23.958	-159.96
-19.609	176.11
-17.496	149.12
-16.728	119.18
-17.613	85.972
-20.935	52.483
-28.367	20.856
-39.444	-158.29
-25.466	163.39
-20.718	138.11
-18.405	111.77
-17.82	86.162
-18.43	63.842
-19.904	44.417
-22.662	27.254
-28.686	21.455
-30.451	96.422
-21.883	96.942
-17.806	72.921
-15.896	43.81
-15.558	11.886
-16.751	-21.908
-19.601	-57.487
-24.576	-99.27
-31.682	-174.69
-29.188	86.219
-25.804	35.434
-24.902	-6.6835
-25.339	-52.539
-25.687	-108.28
-24.471	-167.79
-22.788	141.09
-22.302	99.674
-23.523	67.114
-26.824	46.504
-31.324	62.3
-26.912	88.452
-22.291	70.892
-19.908	41.303
-18.833	6.3581
-18.446	-34.719
-18.294	-83.317
-18.044	-135.92
-17.713	175.67
-17.522	135.72
-17.595	102.63
-18.088	73.117
-19.4	45.12
-22.104	21.028
-25.924	8.7202
-29.167	8.6711
-32.088	11.513
-35.547	38.373
-29.981	69.929
-24.132	51.497
-20.597	18.304
-18.181	-20.124
-16.146	-61.765
-14.369	-105.64
-13.176	-149.59
-12.792	169.58
-13.077	133.54
-13.86	101.65
-15.169	72.907
-17.17	47.962
-19.743	30.565
-21.619	23.608
-21.46	15.946
-20.59	-3.2557
-20.294	-30.769
-20.774	-60.626
-21.69	-87.975
-22.457	-110.07
-22.464	-127.63
-21.567	-145.39
-20.396	-167.24
-19.633	166.92
-19.591	138.02
-20.524	105.01
-23.051	63.713
-27.817	-0.50506
-27.789	-98.691
-23.498	-156.88
-20.949	164.99
-19.642	130.63
-19.486	94.319
-20.774	54.898
-23.357	13.277
-26.14	-32.603
-27.333	-82.452
-26.601	-126.23
-25.502	-160.26
-24.951	173.12
-24.965	153.08
-25.039	139.01
-24.582	127.5
-23.578	113.01
-22.589	92.878
-22.07	68.361
-22.104	41.907
-22.527	15.728
-23.024	-8.3189
-23.149	-29.725
-22.618	-50.496
-21.588	-73.399
-20.44	-100.11
-19.57	-131.72
-19.412	-169.25
-20.435	146.47
-22.851	94
-25.868	29.59
-27.241	-42.109
-27.248	-104.31
-27.934	-159.91
-29.49	136.05
-29.034	54.739
-25.917	-16.515
-24.28	-72.521
-25.134	-120.9
-28.608	-170.69
-33.516	100.94
-27.459	6.0204
-22.301	-45.44
-20.182	-89.68
-20.413	-129.98
-22.322	-167.4
-25.717	151.96
-30.43	91.637
-31.13	6.8753
-29.053	-42.661
-27.854	-62.385
-25.732	-73.094
-23.122	-90.987
-21.191	-118.81
-20.53	-155.15
-21.207	161.79
-22.533	112.79
-23.426	60.046
-24.037	10.552
-26.541	-27.89
-32.336	-12.083
-24.281	15.018
-18.584	-9.8622
-15.48	-42.03
-14.234	-77.803
-14.995	-114.91
-17.945	-150.44
-24.042	174.41
-41.873	49.625
-24.563	-54.904
-20.308	-96.695
-20.276	-141.24
-23.805	168.31
-29.228	83.71
-25.123	-9.058
-21.164	-59.152
-19.923	-101.98
-21.196	-145.72
-25.22	162.63
-29.926	73.442
-26.144	-15.382
-23.509	-70.347
-24.038	-122.93
-26.778	169.65
-25.913	85.008
-22.147	28.863
-19.952	-8.8068
-19.627	-37.634
-20.944	-55.446
-22.328	-55.166
-20.935	-49.464
-18.59	-58.347
-17.361	-76.401
-17.577	-96.495
-19.202	-113.92
-22.214	-122.99
-25.421	-110.8
-24.146	-90.132
-21.708	-92.243
